"acc","accuracy","average_response_time","avg_rt","background","bidi","canvas_backend","clock_backend","color_backend","compensation","coordinates","correct","correct_instructions1","correct_instructions2","correct_instructions3","correct_keyboard_response","correct_response","count_block_loop","count_block_sequence","count_end_of_experiment","count_error","count_experiment","count_experimental_loop","count_fixation_dot","count_fraction","count_instructions1","count_instructions2","count_instructions3","count_keyboard_response","count_logger","count_rest","count_trial_sequence","datetime","denomColor","denomSalience","denominator","description","disable_garbage_collection","empty_column","experiment_file","experiment_path","font_bold","font_family","font_italic","font_size","font_underline","foreground","form_clicks","fullscreen","height","keyboard_backend","live_row","live_row_block_loop","live_row_experimental_loop","logfile","mouse_backend","numColor","numSalience","numerator","opensesame_codename","opensesame_version","repeat_cycle","response","response_end_of_experiment","response_instructions1","response_instructions2","response_instructions3","response_keyboard_response","response_rest","response_time","response_time_end_of_experiment","response_time_instructions1","response_time_instructions2","response_time_instructions3","response_time_keyboard_response","response_time_rest","round_decimals","sampler_backend","sound_buf_size","sound_channels","sound_freq","sound_sample_size","start","subject_nr","subject_parity","target","time_block_loop","time_block_sequence","time_end_of_experiment","time_error","time_experiment","time_experimental_loop","time_fixation_dot","time_fraction","time_instructions1","time_instructions2","time_instructions3","time_keyboard_response","time_logger","time_rest","time_trial_sequence","title","total_correct","total_response_time","total_responses","uniform_coordinates","width"
"0","0","1414","1414","#808080","no","legacy","legacy","legacy","0","uniform","0","undefined","undefined","undefined","0","a","0","0","0","0","0","0","0","0","0","0","0","0","0","0","0","Wed Apr 25 08:27:12 2018","#000000","high","2","The main experiment item","yes","","experiment.osexp","/Users/tom/github/sft-fraction/procedure","no","mono","no","24","no","white","no","yes","800","legacy","0","0","0","/Users/tom/github/sft-fraction/results/data/subject-3a.csv","legacy","#000000","high","3","Jazzy James","3.1.9","0","l","NA","space","space","a","l","NA","1414","NA","136568","13862","18672","1414","NA","2","legacy","1024","2","48000","-16","experiment","3","odd","absent","485923","485923","NA","NA","316731","485906","485975","486491","316766","453352","467233","486491","487911","NA","485960","Fraction component detection task","0","1414","1","yes","1280"
"50","50","1307.5","1307.5","#808080","no","legacy","legacy","legacy","0","uniform","1","undefined","undefined","undefined","1","a","0","0","0","1","0","0","1","1","0","0","0","1","1","0","1","Wed Apr 25 08:27:12 2018","#757575","low","2","The main experiment item","yes","","experiment.osexp","/Users/tom/github/sft-fraction/procedure","no","mono","no","24","no","white","no","yes","800","legacy","1","1","0","/Users/tom/github/sft-fraction/results/data/subject-3a.csv","legacy","#000000","high","3","Jazzy James","3.1.9","0","a","NA","space","space","a","a","NA","1201","NA","136568","13862","18672","1201","NA","2","legacy","1024","2","48000","-16","experiment","3","odd","absent","485923","485923","NA","487937","316731","485906","489020","489536","316766","453352","467233","489536","490739","NA","489004","Fraction component detection task","1","2615","2","yes","1280"
"66.6666666667","66.6666666667","1225","1225","#808080","no","legacy","legacy","legacy","0","uniform","1","undefined","undefined","undefined","1","l","0","0","0","2","0","0","2","2","0","0","0","2","2","0","2","Wed Apr 25 08:27:12 2018","#000000","high","6","The main experiment item","yes","","experiment.osexp","/Users/tom/github/sft-fraction/procedure","no","mono","no","24","no","white","no","yes","800","legacy","2","2","0","/Users/tom/github/sft-fraction/results/data/subject-3a.csv","legacy","#000000","high","2","Jazzy James","3.1.9","0","l","NA","space","space","a","l","NA","1060","NA","136568","13862","18672","1060","NA","2","legacy","1024","2","48000","-16","experiment","3","odd","present","485923","485923","NA","487937","316731","485906","490828","491348","316766","453352","467233","491348","492409","NA","490809","Fraction component detection task","2","3675","3","yes","1280"
"75","75","1123","1123","#808080","no","legacy","legacy","legacy","0","uniform","1","undefined","undefined","undefined","1","l","0","0","0","3","0","0","3","3","0","0","0","3","3","0","3","Wed Apr 25 08:27:12 2018","#000000","high","7","The main experiment item","yes","","experiment.osexp","/Users/tom/github/sft-fraction/procedure","no","mono","no","24","no","white","no","yes","800","legacy","3","3","0","/Users/tom/github/sft-fraction/results/data/subject-3a.csv","legacy","#757575","low","2","Jazzy James","3.1.9","0","l","NA","space","space","a","l","NA","817","NA","136568","13862","18672","817","NA","2","legacy","1024","2","48000","-16","experiment","3","odd","present","485923","485923","NA","487937","316731","485906","492491","493007","316766","453352","467233","493008","493826","NA","492474","Fraction component detection task","3","4492","4","yes","1280"
"80","80","1163.2","1163.2","#808080","no","legacy","legacy","legacy","0","uniform","1","undefined","undefined","undefined","1","l","0","0","0","4","0","0","4","4","0","0","0","4","4","0","4","Wed Apr 25 08:27:12 2018","#757575","low","6","The main experiment item","yes","","experiment.osexp","/Users/tom/github/sft-fraction/procedure","no","mono","no","24","no","white","no","yes","800","legacy","4","4","0","/Users/tom/github/sft-fraction/results/data/subject-3a.csv","legacy","#757575","low","7","Jazzy James","3.1.9","0","l","NA","space","space","a","l","NA","1324","NA","136568","13862","18672","1324","NA","2","legacy","1024","2","48000","-16","experiment","3","odd","present","485923","485923","NA","487937","316731","485906","493914","494429","316766","453352","467233","494429","495754","NA","493894","Fraction component detection task","4","5816","5","yes","1280"
"83.3333333333","83.3333333333","1124.66666667","1124.66666667","#808080","no","legacy","legacy","legacy","0","uniform","1","undefined","undefined","undefined","1","l","0","0","0","5","0","0","5","5","0","0","0","5","5","0","5","Wed Apr 25 08:27:12 2018","#757575","low","3","The main experiment item","yes","","experiment.osexp","/Users/tom/github/sft-fraction/procedure","no","mono","no","24","no","white","no","yes","800","legacy","5","5","0","/Users/tom/github/sft-fraction/results/data/subject-3a.csv","legacy","#757575","low","6","Jazzy James","3.1.9","0","l","NA","space","space","a","l","NA","932","NA","136568","13862","18672","932","NA","2","legacy","1024","2","48000","-16","experiment","3","odd","present","485923","485923","NA","487937","316731","485906","495836","496355","316766","453352","467233","496356","497290","NA","495819","Fraction component detection task","5","6748","6","yes","1280"
"85.7142857143","85.7142857143","1056.14285714","1056.14285714","#808080","no","legacy","legacy","legacy","0","uniform","1","undefined","undefined","undefined","1","a","0","0","0","6","0","0","6","6","0","0","0","6","6","0","6","Wed Apr 25 08:27:12 2018","#757575","low","3","The main experiment item","yes","","experiment.osexp","/Users/tom/github/sft-fraction/procedure","no","mono","no","24","no","white","no","yes","800","legacy","6","6","0","/Users/tom/github/sft-fraction/results/data/subject-3a.csv","legacy","#757575","low","2","Jazzy James","3.1.9","0","a","NA","space","space","a","a","NA","645","NA","136568","13862","18672","645","NA","2","legacy","1024","2","48000","-16","experiment","3","odd","absent","485923","485923","NA","487937","316731","485906","497374","497890","316766","453352","467233","497891","498538","NA","497357","Fraction component detection task","6","7393","7","yes","1280"
"87.5","87.5","1022","1022","#808080","no","legacy","legacy","legacy","0","uniform","1","undefined","undefined","undefined","1","a","0","0","0","7","0","0","7","7","0","0","0","7","7","0","7","Wed Apr 25 08:27:12 2018","#000000","high","4","The main experiment item","yes","","experiment.osexp","/Users/tom/github/sft-fraction/procedure","no","mono","no","24","no","white","no","yes","800","legacy","7","7","0","/Users/tom/github/sft-fraction/results/data/subject-3a.csv","legacy","#000000","high","3","Jazzy James","3.1.9","0","a","NA","space","space","a","a","NA","783","NA","136568","13862","18672","783","NA","2","legacy","1024","2","48000","-16","experiment","3","odd","absent","485923","485923","NA","487937","316731","485906","498620","499138","316766","453352","467233","499138","499923","NA","498605","Fraction component detection task","7","8176","8","yes","1280"
"88.8888888889","88.8888888889","968.666666667","968.666666667","#808080","no","legacy","legacy","legacy","0","uniform","1","undefined","undefined","undefined","1","a","0","0","0","8","0","0","8","8","0","0","0","8","8","0","8","Wed Apr 25 08:27:12 2018","#000000","high","4","The main experiment item","yes","","experiment.osexp","/Users/tom/github/sft-fraction/procedure","no","mono","no","24","no","white","no","yes","800","legacy","8","8","0","/Users/tom/github/sft-fraction/results/data/subject-3a.csv","legacy","#000000","high","3","Jazzy James","3.1.9","0","a","NA","space","space","a","a","NA","542","NA","136568","13862","18672","542","NA","2","legacy","1024","2","48000","-16","experiment","3","odd","absent","485923","485923","NA","487937","316731","485906","500005","500522","316766","453352","467233","500522","501066","NA","499991","Fraction component detection task","8","8718","9","yes","1280"
"90","90","944","944","#808080","no","legacy","legacy","legacy","0","uniform","1","undefined","undefined","undefined","1","l","0","0","0","9","0","0","9","9","0","0","0","9","9","0","9","Wed Apr 25 08:27:12 2018","#000000","high","4","The main experiment item","yes","","experiment.osexp","/Users/tom/github/sft-fraction/procedure","no","mono","no","24","no","white","no","yes","800","legacy","9","9","0","/Users/tom/github/sft-fraction/results/data/subject-3a.csv","legacy","#000000","high","7","Jazzy James","3.1.9","0","l","NA","space","space","a","l","NA","722","NA","136568","13862","18672","722","NA","2","legacy","1024","2","48000","-16","experiment","3","odd","present","485923","485923","NA","487937","316731","485906","501153","501670","316766","453352","467233","501670","502394","NA","501137","Fraction component detection task","9","9440","10","yes","1280"
"90.9090909091","90.9090909091","912.545454545","912.545454545","#808080","no","legacy","legacy","legacy","0","uniform","1","undefined","undefined","undefined","1","a","0","0","0","10","0","0","10","10","0","0","0","10","10","0","10","Wed Apr 25 08:27:12 2018","#757575","low","4","The main experiment item","yes","","experiment.osexp","/Users/tom/github/sft-fraction/procedure","no","mono","no","24","no","white","no","yes","800","legacy","10","10","0","/Users/tom/github/sft-fraction/results/data/subject-3a.csv","legacy","#757575","low","4","Jazzy James","3.1.9","0","a","NA","space","space","a","a","NA","598","NA","136568","13862","18672","598","NA","2","legacy","1024","2","48000","-16","experiment","3","odd","absent","485923","485923","NA","487937","316731","485906","502478","502994","316766","453352","467233","502995","503595","NA","502457","Fraction component detection task","10","10038","11","yes","1280"
"91.6666666667","91.6666666667","883.416666667","883.416666667","#808080","no","legacy","legacy","legacy","0","uniform","1","undefined","undefined","undefined","1","a","0","0","0","11","0","0","11","11","0","0","0","11","11","0","11","Wed Apr 25 08:27:12 2018","#000000","high","4","The main experiment item","yes","","experiment.osexp","/Users/tom/github/sft-fraction/procedure","no","mono","no","24","no","white","no","yes","800","legacy","11","11","0","/Users/tom/github/sft-fraction/results/data/subject-3a.csv","legacy","#000000","high","4","Jazzy James","3.1.9","0","a","NA","space","space","a","a","NA","563","NA","136568","13862","18672","563","NA","2","legacy","1024","2","48000","-16","experiment","3","odd","absent","485923","485923","NA","487937","316731","485906","503674","504190","316766","453352","467233","504190","504755","NA","503659","Fraction component detection task","11","10601","12","yes","1280"
"92.3076923077","92.3076923077","853.538461538","853.538461538","#808080","no","legacy","legacy","legacy","0","uniform","1","undefined","undefined","undefined","1","a","0","0","0","12","0","0","12","12","0","0","0","12","12","0","12","Wed Apr 25 08:27:12 2018","#757575","low","2","The main experiment item","yes","","experiment.osexp","/Users/tom/github/sft-fraction/procedure","no","mono","no","24","no","white","no","yes","800","legacy","12","12","0","/Users/tom/github/sft-fraction/results/data/subject-3a.csv","legacy","#000000","high","2","Jazzy James","3.1.9","0","a","NA","space","space","a","a","NA","495","NA","136568","13862","18672","495","NA","2","legacy","1024","2","48000","-16","experiment","3","odd","absent","485923","485923","NA","487937","316731","485906","504839","505354","316766","453352","467233","505355","505853","NA","504824","Fraction component detection task","12","11096","13","yes","1280"
"92.8571428571","92.8571428571","858","858","#808080","no","legacy","legacy","legacy","0","uniform","1","undefined","undefined","undefined","1","a","0","0","0","13","0","0","13","13","0","0","0","13","13","0","13","Wed Apr 25 08:27:12 2018","#757575","low","3","The main experiment item","yes","","experiment.osexp","/Users/tom/github/sft-fraction/procedure","no","mono","no","24","no","white","no","yes","800","legacy","13","13","0","/Users/tom/github/sft-fraction/results/data/subject-3a.csv","legacy","#000000","high","4","Jazzy James","3.1.9","0","a","NA","space","space","a","a","NA","916","NA","136568","13862","18672","916","NA","2","legacy","1024","2","48000","-16","experiment","3","odd","absent","485923","485923","NA","487937","316731","485906","505937","506452","316766","453352","467233","506453","507370","NA","505922","Fraction component detection task","13","12012","14","yes","1280"
"93.3333333333","93.3333333333","838.733333333","838.733333333","#808080","no","legacy","legacy","legacy","0","uniform","1","undefined","undefined","undefined","1","a","0","0","0","14","0","0","14","14","0","0","0","14","14","0","14","Wed Apr 25 08:27:12 2018","#757575","low","3","The main experiment item","yes","","experiment.osexp","/Users/tom/github/sft-fraction/procedure","no","mono","no","24","no","white","no","yes","800","legacy","14","14","0","/Users/tom/github/sft-fraction/results/data/subject-3a.csv","legacy","#000000","high","2","Jazzy James","3.1.9","0","a","NA","space","space","a","a","NA","569","NA","136568","13862","18672","569","NA","2","legacy","1024","2","48000","-16","experiment","3","odd","absent","485923","485923","NA","487937","316731","485906","507452","507968","316766","453352","467233","507968","508538","NA","507437","Fraction component detection task","14","12581","15","yes","1280"
"93.75","93.75","826.625","826.625","#808080","no","legacy","legacy","legacy","0","uniform","1","undefined","undefined","undefined","1","l","0","0","0","15","0","0","15","15","0","0","0","15","15","0","15","Wed Apr 25 08:27:12 2018","#757575","low","7","The main experiment item","yes","","experiment.osexp","/Users/tom/github/sft-fraction/procedure","no","mono","no","24","no","white","no","yes","800","legacy","15","15","0","/Users/tom/github/sft-fraction/results/data/subject-3a.csv","legacy","#757575","low","6","Jazzy James","3.1.9","0","l","NA","space","space","a","l","NA","645","NA","136568","13862","18672","645","NA","2","legacy","1024","2","48000","-16","experiment","3","odd","present","485923","485923","NA","487937","316731","485906","508625","509141","316766","453352","467233","509141","509787","NA","508610","Fraction component detection task","15","13226","16","yes","1280"
"94.1176470588","94.1176470588","810.941176471","810.941176471","#808080","no","legacy","legacy","legacy","0","uniform","1","undefined","undefined","undefined","1","a","0","0","0","16","0","0","16","16","0","0","0","16","16","0","16","Wed Apr 25 08:27:12 2018","#757575","low","2","The main experiment item","yes","","experiment.osexp","/Users/tom/github/sft-fraction/procedure","no","mono","no","24","no","white","no","yes","800","legacy","16","16","0","/Users/tom/github/sft-fraction/results/data/subject-3a.csv","legacy","#757575","low","2","Jazzy James","3.1.9","0","a","NA","space","space","a","a","NA","560","NA","136568","13862","18672","560","NA","2","legacy","1024","2","48000","-16","experiment","3","odd","absent","485923","485923","NA","487937","316731","485906","509878","510393","316766","453352","467233","510394","510955","NA","509860","Fraction component detection task","16","13786","17","yes","1280"
"94.4444444444","94.4444444444","798.222222222","798.222222222","#808080","no","legacy","legacy","legacy","0","uniform","1","undefined","undefined","undefined","1","l","0","0","0","17","0","0","17","17","0","0","0","17","17","0","17","Wed Apr 25 08:27:12 2018","#000000","high","8","The main experiment item","yes","","experiment.osexp","/Users/tom/github/sft-fraction/procedure","no","mono","no","24","no","white","no","yes","800","legacy","17","17","0","/Users/tom/github/sft-fraction/results/data/subject-3a.csv","legacy","#757575","low","6","Jazzy James","3.1.9","0","l","NA","space","space","a","l","NA","582","NA","136568","13862","18672","582","NA","2","legacy","1024","2","48000","-16","experiment","3","odd","present","485923","485923","NA","487937","316731","485906","511039","511555","316766","453352","467233","511555","512138","NA","511019","Fraction component detection task","17","14368","18","yes","1280"
"94.7368421053","94.7368421053","785.789473684","785.789473684","#808080","no","legacy","legacy","legacy","0","uniform","1","undefined","undefined","undefined","1","a","0","0","0","18","0","0","18","18","0","0","0","18","18","0","18","Wed Apr 25 08:27:12 2018","#757575","low","2","The main experiment item","yes","","experiment.osexp","/Users/tom/github/sft-fraction/procedure","no","mono","no","24","no","white","no","yes","800","legacy","18","18","0","/Users/tom/github/sft-fraction/results/data/subject-3a.csv","legacy","#000000","high","2","Jazzy James","3.1.9","0","a","NA","space","space","a","a","NA","562","NA","136568","13862","18672","562","NA","2","legacy","1024","2","48000","-16","experiment","3","odd","absent","485923","485923","NA","487937","316731","485906","512218","512734","316766","453352","467233","512735","513299","NA","512203","Fraction component detection task","18","14930","19","yes","1280"
"95","95","771.3","771.3","#808080","no","legacy","legacy","legacy","0","uniform","1","undefined","undefined","undefined","1","a","0","0","0","19","0","0","19","19","0","0","0","19","19","0","19","Wed Apr 25 08:27:12 2018","#000000","high","2","The main experiment item","yes","","experiment.osexp","/Users/tom/github/sft-fraction/procedure","no","mono","no","24","no","white","no","yes","800","legacy","19","19","0","/Users/tom/github/sft-fraction/results/data/subject-3a.csv","legacy","#000000","high","2","Jazzy James","3.1.9","0","a","NA","space","space","a","a","NA","496","NA","136568","13862","18672","496","NA","2","legacy","1024","2","48000","-16","experiment","3","odd","absent","485923","485923","NA","487937","316731","485906","513382","513905","316766","453352","467233","513905","514404","NA","513362","Fraction component detection task","19","15426","20","yes","1280"
"95.2380952381","95.2380952381","764.619047619","764.619047619","#808080","no","legacy","legacy","legacy","0","uniform","1","undefined","undefined","undefined","1","l","0","0","0","20","0","0","20","20","0","0","0","20","20","0","20","Wed Apr 25 08:27:12 2018","#000000","high","8","The main experiment item","yes","","experiment.osexp","/Users/tom/github/sft-fraction/procedure","no","mono","no","24","no","white","no","yes","800","legacy","20","20","0","/Users/tom/github/sft-fraction/results/data/subject-3a.csv","legacy","#000000","high","4","Jazzy James","3.1.9","0","l","NA","space","space","a","l","NA","631","NA","136568","13862","18672","631","NA","2","legacy","1024","2","48000","-16","experiment","3","odd","present","485923","485923","NA","487937","316731","485906","514487","515002","316766","453352","467233","515003","515636","NA","514470","Fraction component detection task","20","16057","21","yes","1280"
"95.4545454545","95.4545454545","755.954545455","755.954545455","#808080","no","legacy","legacy","legacy","0","uniform","1","undefined","undefined","undefined","1","l","0","0","0","21","0","0","21","21","0","0","0","21","21","0","21","Wed Apr 25 08:27:12 2018","#000000","high","2","The main experiment item","yes","","experiment.osexp","/Users/tom/github/sft-fraction/procedure","no","mono","no","24","no","white","no","yes","800","legacy","21","21","0","/Users/tom/github/sft-fraction/results/data/subject-3a.csv","legacy","#000000","high","6","Jazzy James","3.1.9","0","l","NA","space","space","a","l","NA","574","NA","136568","13862","18672","574","NA","2","legacy","1024","2","48000","-16","experiment","3","odd","present","485923","485923","NA","487937","316731","485906","515720","516236","316766","453352","467233","516236","516812","NA","515700","Fraction component detection task","21","16631","22","yes","1280"
"95.652173913","95.652173913","745.869565217","745.869565217","#808080","no","legacy","legacy","legacy","0","uniform","1","undefined","undefined","undefined","1","a","0","0","0","22","0","0","22","22","0","0","0","22","22","0","22","Wed Apr 25 08:27:12 2018","#757575","low","3","The main experiment item","yes","","experiment.osexp","/Users/tom/github/sft-fraction/procedure","no","mono","no","24","no","white","no","yes","800","legacy","22","22","0","/Users/tom/github/sft-fraction/results/data/subject-3a.csv","legacy","#757575","low","4","Jazzy James","3.1.9","0","a","NA","space","space","a","a","NA","524","NA","136568","13862","18672","524","NA","2","legacy","1024","2","48000","-16","experiment","3","odd","absent","485923","485923","NA","487937","316731","485906","516898","517413","316766","453352","467233","517414","517940","NA","516881","Fraction component detection task","22","17155","23","yes","1280"
"95.8333333333","95.8333333333","745.541666667","745.541666667","#808080","no","legacy","legacy","legacy","0","uniform","1","undefined","undefined","undefined","1","a","0","0","0","23","0","0","23","23","0","0","0","23","23","0","23","Wed Apr 25 08:27:12 2018","#000000","high","4","The main experiment item","yes","","experiment.osexp","/Users/tom/github/sft-fraction/procedure","no","mono","no","24","no","white","no","yes","800","legacy","23","23","0","/Users/tom/github/sft-fraction/results/data/subject-3a.csv","legacy","#757575","low","2","Jazzy James","3.1.9","0","a","NA","space","space","a","a","NA","738","NA","136568","13862","18672","738","NA","2","legacy","1024","2","48000","-16","experiment","3","odd","absent","485923","485923","NA","487937","316731","485906","518019","518535","316766","453352","467233","518535","519275","NA","518004","Fraction component detection task","23","17893","24","yes","1280"
"96","96","741.2","741.2","#808080","no","legacy","legacy","legacy","0","uniform","1","undefined","undefined","undefined","1","a","0","0","0","24","0","0","24","24","0","0","0","24","24","0","24","Wed Apr 25 08:27:12 2018","#757575","low","4","The main experiment item","yes","","experiment.osexp","/Users/tom/github/sft-fraction/procedure","no","mono","no","24","no","white","no","yes","800","legacy","24","24","0","/Users/tom/github/sft-fraction/results/data/subject-3a.csv","legacy","#757575","low","3","Jazzy James","3.1.9","0","a","NA","space","space","a","a","NA","637","NA","136568","13862","18672","637","NA","2","legacy","1024","2","48000","-16","experiment","3","odd","absent","485923","485923","NA","487937","316731","485906","519359","519875","316766","453352","467233","519876","520515","NA","519341","Fraction component detection task","24","18530","25","yes","1280"
"96.1538461538","96.1538461538","729.961538462","729.961538462","#808080","no","legacy","legacy","legacy","0","uniform","1","undefined","undefined","undefined","1","a","0","0","0","25","0","0","25","25","0","0","0","25","25","0","25","Wed Apr 25 08:27:12 2018","#757575","low","2","The main experiment item","yes","","experiment.osexp","/Users/tom/github/sft-fraction/procedure","no","mono","no","24","no","white","no","yes","800","legacy","25","25","0","/Users/tom/github/sft-fraction/results/data/subject-3a.csv","legacy","#000000","high","3","Jazzy James","3.1.9","0","a","NA","space","space","a","a","NA","449","NA","136568","13862","18672","449","NA","2","legacy","1024","2","48000","-16","experiment","3","odd","absent","485923","485923","NA","487937","316731","485906","520605","521121","316766","453352","467233","521121","521572","NA","520581","Fraction component detection task","25","18979","26","yes","1280"
"96.2962962963","96.2962962963","722.444444444","722.444444444","#808080","no","legacy","legacy","legacy","0","uniform","1","undefined","undefined","undefined","1","l","0","0","0","26","0","0","26","26","0","0","0","26","26","0","26","Wed Apr 25 08:27:12 2018","#757575","low","4","The main experiment item","yes","","experiment.osexp","/Users/tom/github/sft-fraction/procedure","no","mono","no","24","no","white","no","yes","800","legacy","26","26","0","/Users/tom/github/sft-fraction/results/data/subject-3a.csv","legacy","#757575","low","7","Jazzy James","3.1.9","0","l","NA","space","space","a","l","NA","527","NA","136568","13862","18672","527","NA","2","legacy","1024","2","48000","-16","experiment","3","odd","present","485923","485923","NA","487937","316731","485906","521663","522178","316766","453352","467233","522179","522708","NA","521647","Fraction component detection task","26","19506","27","yes","1280"
"96.4285714286","96.4285714286","719","719","#808080","no","legacy","legacy","legacy","0","uniform","1","undefined","undefined","undefined","1","l","0","0","0","27","0","0","27","27","0","0","0","27","27","0","27","Wed Apr 25 08:27:12 2018","#000000","high","4","The main experiment item","yes","","experiment.osexp","/Users/tom/github/sft-fraction/procedure","no","mono","no","24","no","white","no","yes","800","legacy","27","27","0","/Users/tom/github/sft-fraction/results/data/subject-3a.csv","legacy","#757575","low","6","Jazzy James","3.1.9","0","l","NA","space","space","a","l","NA","626","NA","136568","13862","18672","626","NA","2","legacy","1024","2","48000","-16","experiment","3","odd","present","485923","485923","NA","487937","316731","485906","522787","523304","316766","453352","467233","523304","523932","NA","522772","Fraction component detection task","27","20132","28","yes","1280"
"96.5517241379","96.5517241379","713.517241379","713.517241379","#808080","no","legacy","legacy","legacy","0","uniform","1","undefined","undefined","undefined","1","a","0","0","0","28","0","0","28","28","0","0","0","28","28","0","28","Wed Apr 25 08:27:12 2018","#757575","low","3","The main experiment item","yes","","experiment.osexp","/Users/tom/github/sft-fraction/procedure","no","mono","no","24","no","white","no","yes","800","legacy","28","28","0","/Users/tom/github/sft-fraction/results/data/subject-3a.csv","legacy","#757575","low","3","Jazzy James","3.1.9","0","a","NA","space","space","a","a","NA","560","NA","136568","13862","18672","560","NA","2","legacy","1024","2","48000","-16","experiment","3","odd","absent","485923","485923","NA","487937","316731","485906","524020","524537","316766","453352","467233","524537","525099","NA","524000","Fraction component detection task","28","20692","29","yes","1280"
"96.6666666667","96.6666666667","708.966666667","708.966666667","#808080","no","legacy","legacy","legacy","0","uniform","1","undefined","undefined","undefined","1","a","0","0","0","29","0","0","29","29","0","0","0","29","29","0","29","Wed Apr 25 08:27:12 2018","#757575","low","2","The main experiment item","yes","","experiment.osexp","/Users/tom/github/sft-fraction/procedure","no","mono","no","24","no","white","no","yes","800","legacy","29","29","0","/Users/tom/github/sft-fraction/results/data/subject-3a.csv","legacy","#757575","low","4","Jazzy James","3.1.9","0","a","NA","space","space","a","a","NA","577","NA","136568","13862","18672","577","NA","2","legacy","1024","2","48000","-16","experiment","3","odd","absent","485923","485923","NA","487937","316731","485906","525179","525696","316766","453352","467233","525696","526275","NA","525161","Fraction component detection task","29","21269","30","yes","1280"
"96.7741935484","96.7741935484","702.967741935","702.967741935","#808080","no","legacy","legacy","legacy","0","uniform","1","undefined","undefined","undefined","1","a","0","0","0","30","0","0","30","30","0","0","0","30","30","0","30","Wed Apr 25 08:27:12 2018","#757575","low","2","The main experiment item","yes","","experiment.osexp","/Users/tom/github/sft-fraction/procedure","no","mono","no","24","no","white","no","yes","800","legacy","30","30","0","/Users/tom/github/sft-fraction/results/data/subject-3a.csv","legacy","#757575","low","2","Jazzy James","3.1.9","0","a","NA","space","space","a","a","NA","523","NA","136568","13862","18672","523","NA","2","legacy","1024","2","48000","-16","experiment","3","odd","absent","485923","485923","NA","487937","316731","485906","526361","526877","316766","453352","467233","526878","527403","NA","526344","Fraction component detection task","30","21792","31","yes","1280"
"96.875","96.875","703.40625","703.40625","#808080","no","legacy","legacy","legacy","0","uniform","1","undefined","undefined","undefined","1","l","0","0","0","31","0","0","31","31","0","0","0","31","31","0","31","Wed Apr 25 08:27:12 2018","#757575","low","6","The main experiment item","yes","","experiment.osexp","/Users/tom/github/sft-fraction/procedure","no","mono","no","24","no","white","no","yes","800","legacy","31","31","0","/Users/tom/github/sft-fraction/results/data/subject-3a.csv","legacy","#757575","low","3","Jazzy James","3.1.9","0","l","NA","space","space","a","l","NA","717","NA","136568","13862","18672","717","NA","2","legacy","1024","2","48000","-16","experiment","3","odd","present","485923","485923","NA","487937","316731","485906","527487","528005","316766","453352","467233","528006","528725","NA","527472","Fraction component detection task","31","22509","32","yes","1280"
"96.9696969697","96.9696969697","698.909090909","698.909090909","#808080","no","legacy","legacy","legacy","0","uniform","1","undefined","undefined","undefined","1","a","0","0","0","32","0","0","32","32","0","0","0","32","32","0","32","Wed Apr 25 08:27:12 2018","#757575","low","3","The main experiment item","yes","","experiment.osexp","/Users/tom/github/sft-fraction/procedure","no","mono","no","24","no","white","no","yes","800","legacy","32","32","0","/Users/tom/github/sft-fraction/results/data/subject-3a.csv","legacy","#000000","high","4","Jazzy James","3.1.9","0","a","NA","space","space","a","a","NA","555","NA","136568","13862","18672","555","NA","2","legacy","1024","2","48000","-16","experiment","3","odd","absent","485923","485923","NA","487937","316731","485906","528804","529320","316766","453352","467233","529320","529877","NA","528789","Fraction component detection task","32","23064","33","yes","1280"
"97.0588235294","97.0588235294","703.911764706","703.911764706","#808080","no","legacy","legacy","legacy","0","uniform","1","undefined","undefined","undefined","1","l","0","0","0","33","0","0","33","33","0","0","0","33","33","0","33","Wed Apr 25 08:27:12 2018","#000000","high","3","The main experiment item","yes","","experiment.osexp","/Users/tom/github/sft-fraction/procedure","no","mono","no","24","no","white","no","yes","800","legacy","33","33","0","/Users/tom/github/sft-fraction/results/data/subject-3a.csv","legacy","#757575","low","7","Jazzy James","3.1.9","0","l","NA","space","space","a","l","NA","869","NA","136568","13862","18672","869","NA","2","legacy","1024","2","48000","-16","experiment","3","odd","present","485923","485923","NA","487937","316731","485906","529953","530469","316766","453352","467233","530469","531340","NA","529938","Fraction component detection task","33","23933","34","yes","1280"
"97.1428571429","97.1428571429","727.085714286","727.085714286","#808080","no","legacy","legacy","legacy","0","uniform","1","undefined","undefined","undefined","1","l","0","0","0","34","0","0","34","34","0","0","0","34","34","0","34","Wed Apr 25 08:27:12 2018","#757575","low","7","The main experiment item","yes","","experiment.osexp","/Users/tom/github/sft-fraction/procedure","no","mono","no","24","no","white","no","yes","800","legacy","34","34","0","/Users/tom/github/sft-fraction/results/data/subject-3a.csv","legacy","#000000","high","7","Jazzy James","3.1.9","0","l","NA","space","space","a","l","NA","1515","NA","136568","13862","18672","1515","NA","2","legacy","1024","2","48000","-16","experiment","3","odd","present","485923","485923","NA","487937","316731","485906","531424","531943","316766","453352","467233","531943","533460","NA","531404","Fraction component detection task","34","25448","35","yes","1280"
"97.2222222222","97.2222222222","728.833333333","728.833333333","#808080","no","legacy","legacy","legacy","0","uniform","1","undefined","undefined","undefined","1","a","0","0","0","35","0","0","35","35","0","0","0","35","35","0","35","Wed Apr 25 08:27:12 2018","#757575","low","4","The main experiment item","yes","","experiment.osexp","/Users/tom/github/sft-fraction/procedure","no","mono","no","24","no","white","no","yes","800","legacy","35","35","0","/Users/tom/github/sft-fraction/results/data/subject-3a.csv","legacy","#000000","high","2","Jazzy James","3.1.9","0","a","NA","space","space","a","a","NA","790","NA","136568","13862","18672","790","NA","2","legacy","1024","2","48000","-16","experiment","3","odd","absent","485923","485923","NA","487937","316731","485906","533545","534061","316766","453352","467233","534061","534853","NA","533525","Fraction component detection task","35","26238","36","yes","1280"
"94.5945945946","94.5945945946","721.756756757","721.756756757","#808080","no","legacy","legacy","legacy","0","uniform","0","undefined","undefined","undefined","0","l","0","0","0","36","0","0","36","36","0","0","0","36","36","0","36","Wed Apr 25 08:27:12 2018","#757575","low","7","The main experiment item","yes","","experiment.osexp","/Users/tom/github/sft-fraction/procedure","no","mono","no","24","no","white","no","yes","800","legacy","36","36","0","/Users/tom/github/sft-fraction/results/data/subject-3a.csv","legacy","#000000","high","4","Jazzy James","3.1.9","0","a","NA","space","space","a","a","NA","467","NA","136568","13862","18672","467","NA","2","legacy","1024","2","48000","-16","experiment","3","odd","present","485923","485923","NA","487937","316731","485906","534932","535448","316766","453352","467233","535448","535917","NA","534917","Fraction component detection task","35","26705","37","yes","1280"
"94.7368421053","94.7368421053","724.342105263","724.342105263","#808080","no","legacy","legacy","legacy","0","uniform","1","undefined","undefined","undefined","1","a","0","0","0","37","0","0","37","37","0","0","0","37","37","0","37","Wed Apr 25 08:27:12 2018","#757575","low","3","The main experiment item","yes","","experiment.osexp","/Users/tom/github/sft-fraction/procedure","no","mono","no","24","no","white","no","yes","800","legacy","37","37","0","/Users/tom/github/sft-fraction/results/data/subject-3a.csv","legacy","#757575","low","4","Jazzy James","3.1.9","0","a","NA","space","space","a","a","NA","820","NA","136568","13862","18672","820","NA","2","legacy","1024","2","48000","-16","experiment","3","odd","absent","485923","485923","NA","535936","316731","485906","537013","537534","316766","453352","467233","537534","538356","NA","536999","Fraction component detection task","36","27525","38","yes","1280"
"94.8717948718","94.8717948718","723.179487179","723.179487179","#808080","no","legacy","legacy","legacy","0","uniform","1","undefined","undefined","undefined","1","l","0","0","0","38","0","0","38","38","0","0","0","38","38","0","38","Wed Apr 25 08:27:12 2018","#000000","high","2","The main experiment item","yes","","experiment.osexp","/Users/tom/github/sft-fraction/procedure","no","mono","no","24","no","white","no","yes","800","legacy","38","38","0","/Users/tom/github/sft-fraction/results/data/subject-3a.csv","legacy","#757575","low","8","Jazzy James","3.1.9","0","l","NA","space","space","a","l","NA","679","NA","136568","13862","18672","679","NA","2","legacy","1024","2","48000","-16","experiment","3","odd","present","485923","485923","NA","535936","316731","485906","538440","538956","316766","453352","467233","538956","539637","NA","538420","Fraction component detection task","37","28204","39","yes","1280"
"95","95","717.9","717.9","#808080","no","legacy","legacy","legacy","0","uniform","1","undefined","undefined","undefined","1","a","0","0","0","39","0","0","39","39","0","0","0","39","39","0","39","Wed Apr 25 08:27:12 2018","#757575","low","2","The main experiment item","yes","","experiment.osexp","/Users/tom/github/sft-fraction/procedure","no","mono","no","24","no","white","no","yes","800","legacy","39","39","0","/Users/tom/github/sft-fraction/results/data/subject-3a.csv","legacy","#000000","high","3","Jazzy James","3.1.9","0","a","NA","space","space","a","a","NA","512","NA","136568","13862","18672","512","NA","2","legacy","1024","2","48000","-16","experiment","3","odd","absent","485923","485923","NA","535936","316731","485906","539719","540235","316766","453352","467233","540235","540749","NA","539702","Fraction component detection task","38","28716","40","yes","1280"
"95.1219512195","95.1219512195","712.146341463","712.146341463","#808080","no","legacy","legacy","legacy","0","uniform","1","undefined","undefined","undefined","1","l","0","0","0","40","0","0","40","40","0","0","0","40","40","0","40","Wed Apr 25 08:27:12 2018","#757575","low","8","The main experiment item","yes","","experiment.osexp","/Users/tom/github/sft-fraction/procedure","no","mono","no","24","no","white","no","yes","800","legacy","40","40","0","/Users/tom/github/sft-fraction/results/data/subject-3a.csv","legacy","#757575","low","8","Jazzy James","3.1.9","0","l","NA","space","space","a","l","NA","482","NA","136568","13862","18672","482","NA","2","legacy","1024","2","48000","-16","experiment","3","odd","present","485923","485923","NA","535936","316731","485906","540833","541353","316766","453352","467233","541353","541838","NA","540814","Fraction component detection task","39","29198","41","yes","1280"
"95.2380952381","95.2380952381","705.571428571","705.571428571","#808080","no","legacy","legacy","legacy","0","uniform","1","undefined","undefined","undefined","1","a","0","0","0","41","0","0","41","41","0","0","0","41","41","0","41","Wed Apr 25 08:27:12 2018","#000000","high","2","The main experiment item","yes","","experiment.osexp","/Users/tom/github/sft-fraction/procedure","no","mono","no","24","no","white","no","yes","800","legacy","41","41","0","/Users/tom/github/sft-fraction/results/data/subject-3a.csv","legacy","#757575","low","4","Jazzy James","3.1.9","0","a","NA","space","space","a","a","NA","436","NA","136568","13862","18672","436","NA","2","legacy","1024","2","48000","-16","experiment","3","odd","absent","485923","485923","NA","535936","316731","485906","541914","542431","316766","453352","467233","542431","542870","NA","541900","Fraction component detection task","40","29634","42","yes","1280"
"95.3488372093","95.3488372093","700.093023256","700.093023256","#808080","no","legacy","legacy","legacy","0","uniform","1","undefined","undefined","undefined","1","l","0","0","0","42","0","0","42","42","0","0","0","42","42","0","42","Wed Apr 25 08:27:12 2018","#757575","low","7","The main experiment item","yes","","experiment.osexp","/Users/tom/github/sft-fraction/procedure","no","mono","no","24","no","white","no","yes","800","legacy","42","42","0","/Users/tom/github/sft-fraction/results/data/subject-3a.csv","legacy","#000000","high","6","Jazzy James","3.1.9","0","l","NA","space","space","a","l","NA","470","NA","136568","13862","18672","470","NA","2","legacy","1024","2","48000","-16","experiment","3","odd","present","485923","485923","NA","535936","316731","485906","542961","543476","316766","453352","467233","543477","543949","NA","542942","Fraction component detection task","41","30104","43","yes","1280"
"95.4545454545","95.4545454545","697.5","697.5","#808080","no","legacy","legacy","legacy","0","uniform","1","undefined","undefined","undefined","1","a","0","0","0","43","0","0","43","43","0","0","0","43","43","0","43","Wed Apr 25 08:27:12 2018","#000000","high","3","The main experiment item","yes","","experiment.osexp","/Users/tom/github/sft-fraction/procedure","no","mono","no","24","no","white","no","yes","800","legacy","43","43","0","/Users/tom/github/sft-fraction/results/data/subject-3a.csv","legacy","#757575","low","3","Jazzy James","3.1.9","0","a","NA","space","space","a","a","NA","586","NA","136568","13862","18672","586","NA","2","legacy","1024","2","48000","-16","experiment","3","odd","absent","485923","485923","NA","535936","316731","485906","544028","544544","316766","453352","467233","544544","545133","NA","544013","Fraction component detection task","42","30690","44","yes","1280"
"95.5555555556","95.5555555556","691.4","691.4","#808080","no","legacy","legacy","legacy","0","uniform","1","undefined","undefined","undefined","1","a","0","0","0","44","0","0","44","44","0","0","0","44","44","0","44","Wed Apr 25 08:27:12 2018","#757575","low","4","The main experiment item","yes","","experiment.osexp","/Users/tom/github/sft-fraction/procedure","no","mono","no","24","no","white","no","yes","800","legacy","44","44","0","/Users/tom/github/sft-fraction/results/data/subject-3a.csv","legacy","#000000","high","3","Jazzy James","3.1.9","0","a","NA","space","space","a","a","NA","423","NA","136568","13862","18672","423","NA","2","legacy","1024","2","48000","-16","experiment","3","odd","absent","485923","485923","NA","535936","316731","485906","545214","545731","316766","453352","467233","545731","546156","NA","545196","Fraction component detection task","43","31113","45","yes","1280"
"95.652173913","95.652173913","687.195652174","687.195652174","#808080","no","legacy","legacy","legacy","0","uniform","1","undefined","undefined","undefined","1","l","0","0","0","45","0","0","45","45","0","0","0","45","45","0","45","Wed Apr 25 08:27:12 2018","#757575","low","8","The main experiment item","yes","","experiment.osexp","/Users/tom/github/sft-fraction/procedure","no","mono","no","24","no","white","no","yes","800","legacy","45","45","0","/Users/tom/github/sft-fraction/results/data/subject-3a.csv","legacy","#757575","low","7","Jazzy James","3.1.9","0","l","NA","space","space","a","l","NA","498","NA","136568","13862","18672","498","NA","2","legacy","1024","2","48000","-16","experiment","3","odd","present","485923","485923","NA","535936","316731","485906","546239","546759","316766","453352","467233","546760","547261","NA","546224","Fraction component detection task","44","31611","46","yes","1280"
"95.7446808511","95.7446808511","682.468085106","682.468085106","#808080","no","legacy","legacy","legacy","0","uniform","1","undefined","undefined","undefined","1","a","0","0","0","46","0","0","46","46","0","0","0","46","46","0","46","Wed Apr 25 08:27:12 2018","#000000","high","3","The main experiment item","yes","","experiment.osexp","/Users/tom/github/sft-fraction/procedure","no","mono","no","24","no","white","no","yes","800","legacy","46","46","0","/Users/tom/github/sft-fraction/results/data/subject-3a.csv","legacy","#757575","low","2","Jazzy James","3.1.9","0","a","NA","space","space","a","a","NA","465","NA","136568","13862","18672","465","NA","2","legacy","1024","2","48000","-16","experiment","3","odd","absent","485923","485923","NA","535936","316731","485906","547349","547866","316766","453352","467233","547866","548333","NA","547329","Fraction component detection task","45","32076","47","yes","1280"
"93.75","93.75","678.479166667","678.479166667","#808080","no","legacy","legacy","legacy","0","uniform","0","undefined","undefined","undefined","0","l","0","0","0","47","0","0","47","47","0","0","0","47","47","0","47","Wed Apr 25 08:27:12 2018","#000000","high","6","The main experiment item","yes","","experiment.osexp","/Users/tom/github/sft-fraction/procedure","no","mono","no","24","no","white","no","yes","800","legacy","47","47","0","/Users/tom/github/sft-fraction/results/data/subject-3a.csv","legacy","#757575","low","7","Jazzy James","3.1.9","0","a","NA","space","space","a","a","NA","491","NA","136568","13862","18672","491","NA","2","legacy","1024","2","48000","-16","experiment","3","odd","present","485923","485923","NA","535936","316731","485906","548420","548936","316766","453352","467233","548936","549429","NA","548400","Fraction component detection task","45","32567","48","yes","1280"
"93.8775510204","93.8775510204","682.265306122","682.265306122","#808080","no","legacy","legacy","legacy","0","uniform","1","undefined","undefined","undefined","1","a","0","0","0","48","0","0","48","48","0","0","0","48","48","0","48","Wed Apr 25 08:27:12 2018","#000000","high","2","The main experiment item","yes","","experiment.osexp","/Users/tom/github/sft-fraction/procedure","no","mono","no","24","no","white","no","yes","800","legacy","48","48","0","/Users/tom/github/sft-fraction/results/data/subject-3a.csv","legacy","#000000","high","2","Jazzy James","3.1.9","0","a","NA","space","space","a","a","NA","864","NA","136568","13862","18672","864","NA","2","legacy","1024","2","48000","-16","experiment","3","odd","absent","485923","485923","NA","549449","316731","485906","550531","551052","316766","453352","467233","551052","551918","NA","550515","Fraction component detection task","46","33431","49","yes","1280"
"94","94","678.58","678.58","#808080","no","legacy","legacy","legacy","0","uniform","1","undefined","undefined","undefined","1","a","0","0","0","49","0","0","49","49","0","0","0","49","49","0","49","Wed Apr 25 08:27:12 2018","#000000","high","2","The main experiment item","yes","","experiment.osexp","/Users/tom/github/sft-fraction/procedure","no","mono","no","24","no","white","no","yes","800","legacy","49","49","0","/Users/tom/github/sft-fraction/results/data/subject-3a.csv","legacy","#000000","high","4","Jazzy James","3.1.9","0","a","NA","space","space","a","a","NA","498","NA","136568","13862","18672","498","NA","2","legacy","1024","2","48000","-16","experiment","3","odd","absent","485923","485923","NA","549449","316731","485906","551997","552513","316766","453352","467233","552513","553013","NA","551983","Fraction component detection task","47","33929","50","yes","1280"
"94.1176470588","94.1176470588","677","677","#808080","no","legacy","legacy","legacy","0","uniform","1","undefined","undefined","undefined","1","l","0","0","0","50","0","0","50","50","0","0","0","50","50","0","50","Wed Apr 25 08:27:12 2018","#000000","high","8","The main experiment item","yes","","experiment.osexp","/Users/tom/github/sft-fraction/procedure","no","mono","no","24","no","white","no","yes","800","legacy","50","50","0","/Users/tom/github/sft-fraction/results/data/subject-3a.csv","legacy","#757575","low","3","Jazzy James","3.1.9","0","l","NA","space","space","a","l","NA","598","NA","136568","13862","18672","598","NA","2","legacy","1024","2","48000","-16","experiment","3","odd","present","485923","485923","NA","549449","316731","485906","553097","553613","316766","453352","467233","553613","554213","NA","553077","Fraction component detection task","48","34527","51","yes","1280"
"94.2307692308","94.2307692308","673.326923077","673.326923077","#808080","no","legacy","legacy","legacy","0","uniform","1","undefined","undefined","undefined","1","l","0","0","0","51","0","0","51","51","0","0","0","51","51","0","51","Wed Apr 25 08:27:12 2018","#000000","high","4","The main experiment item","yes","","experiment.osexp","/Users/tom/github/sft-fraction/procedure","no","mono","no","24","no","white","no","yes","800","legacy","51","51","0","/Users/tom/github/sft-fraction/results/data/subject-3a.csv","legacy","#757575","low","7","Jazzy James","3.1.9","0","l","NA","space","space","a","l","NA","486","NA","136568","13862","18672","486","NA","2","legacy","1024","2","48000","-16","experiment","3","odd","present","485923","485923","NA","549449","316731","485906","554296","554813","316766","453352","467233","554813","555301","NA","554281","Fraction component detection task","49","35013","52","yes","1280"
"94.3396226415","94.3396226415","670.471698113","670.471698113","#808080","no","legacy","legacy","legacy","0","uniform","1","undefined","undefined","undefined","1","l","0","0","0","52","0","0","52","52","0","0","0","52","52","0","52","Wed Apr 25 08:27:12 2018","#757575","low","6","The main experiment item","yes","","experiment.osexp","/Users/tom/github/sft-fraction/procedure","no","mono","no","24","no","white","no","yes","800","legacy","52","52","0","/Users/tom/github/sft-fraction/results/data/subject-3a.csv","legacy","#000000","high","4","Jazzy James","3.1.9","0","l","NA","space","space","a","l","NA","522","NA","136568","13862","18672","522","NA","2","legacy","1024","2","48000","-16","experiment","3","odd","present","485923","485923","NA","549449","316731","485906","555380","555897","316766","453352","467233","555897","556421","NA","555366","Fraction component detection task","50","35535","53","yes","1280"
"94.4444444444","94.4444444444","667.648148148","667.648148148","#808080","no","legacy","legacy","legacy","0","uniform","1","undefined","undefined","undefined","1","a","0","0","0","53","0","0","53","53","0","0","0","53","53","0","53","Wed Apr 25 08:27:12 2018","#757575","low","4","The main experiment item","yes","","experiment.osexp","/Users/tom/github/sft-fraction/procedure","no","mono","no","24","no","white","no","yes","800","legacy","53","53","0","/Users/tom/github/sft-fraction/results/data/subject-3a.csv","legacy","#000000","high","3","Jazzy James","3.1.9","0","a","NA","space","space","a","a","NA","518","NA","136568","13862","18672","518","NA","2","legacy","1024","2","48000","-16","experiment","3","odd","absent","485923","485923","NA","549449","316731","485906","556506","557021","316766","453352","467233","557021","557541","NA","556486","Fraction component detection task","51","36053","54","yes","1280"
"94.5454545455","94.5454545455","664.890909091","664.890909091","#808080","no","legacy","legacy","legacy","0","uniform","1","undefined","undefined","undefined","1","l","0","0","0","54","0","0","54","54","0","0","0","54","54","0","54","Wed Apr 25 08:27:12 2018","#000000","high","8","The main experiment item","yes","","experiment.osexp","/Users/tom/github/sft-fraction/procedure","no","mono","no","24","no","white","no","yes","800","legacy","54","54","0","/Users/tom/github/sft-fraction/results/data/subject-3a.csv","legacy","#757575","low","8","Jazzy James","3.1.9","0","l","NA","space","space","a","l","NA","516","NA","136568","13862","18672","516","NA","2","legacy","1024","2","48000","-16","experiment","3","odd","present","485923","485923","NA","549449","316731","485906","557628","558144","316766","453352","467233","558144","558662","NA","557612","Fraction component detection task","52","36569","55","yes","1280"
"94.6428571429","94.6428571429","666.125","666.125","#808080","no","legacy","legacy","legacy","0","uniform","1","undefined","undefined","undefined","1","a","0","0","0","55","0","0","55","55","0","0","0","55","55","0","55","Wed Apr 25 08:27:12 2018","#000000","high","4","The main experiment item","yes","","experiment.osexp","/Users/tom/github/sft-fraction/procedure","no","mono","no","24","no","white","no","yes","800","legacy","55","55","0","/Users/tom/github/sft-fraction/results/data/subject-3a.csv","legacy","#757575","low","2","Jazzy James","3.1.9","0","a","NA","space","space","a","a","NA","734","NA","136568","13862","18672","734","NA","2","legacy","1024","2","48000","-16","experiment","3","odd","absent","485923","485923","NA","549449","316731","485906","558746","559261","316766","453352","467233","559262","559998","NA","558732","Fraction component detection task","53","37303","56","yes","1280"
"94.7368421053","94.7368421053","663.912280702","663.912280702","#808080","no","legacy","legacy","legacy","0","uniform","1","undefined","undefined","undefined","1","a","0","0","0","56","0","0","56","56","0","0","0","56","56","0","56","Wed Apr 25 08:27:12 2018","#000000","high","3","The main experiment item","yes","","experiment.osexp","/Users/tom/github/sft-fraction/procedure","no","mono","no","24","no","white","no","yes","800","legacy","56","56","0","/Users/tom/github/sft-fraction/results/data/subject-3a.csv","legacy","#000000","high","2","Jazzy James","3.1.9","0","a","NA","space","space","a","a","NA","540","NA","136568","13862","18672","540","NA","2","legacy","1024","2","48000","-16","experiment","3","odd","absent","485923","485923","NA","549449","316731","485906","560082","560599","316766","453352","467233","560599","561141","NA","560061","Fraction component detection task","54","37843","57","yes","1280"
"94.8275862069","94.8275862069","661.172413793","661.172413793","#808080","no","legacy","legacy","legacy","0","uniform","1","undefined","undefined","undefined","1","a","0","0","0","57","0","0","57","57","0","0","0","57","57","0","57","Wed Apr 25 08:27:12 2018","#000000","high","4","The main experiment item","yes","","experiment.osexp","/Users/tom/github/sft-fraction/procedure","no","mono","no","24","no","white","no","yes","800","legacy","57","57","0","/Users/tom/github/sft-fraction/results/data/subject-3a.csv","legacy","#000000","high","3","Jazzy James","3.1.9","0","a","NA","space","space","a","a","NA","505","NA","136568","13862","18672","505","NA","2","legacy","1024","2","48000","-16","experiment","3","odd","absent","485923","485923","NA","549449","316731","485906","561227","561746","316766","453352","467233","561746","562254","NA","561210","Fraction component detection task","55","38348","58","yes","1280"
"94.9152542373","94.9152542373","658.610169492","658.610169492","#808080","no","legacy","legacy","legacy","0","uniform","1","undefined","undefined","undefined","1","a","0","0","0","58","0","0","58","58","0","0","0","58","58","0","58","Wed Apr 25 08:27:12 2018","#000000","high","2","The main experiment item","yes","","experiment.osexp","/Users/tom/github/sft-fraction/procedure","no","mono","no","24","no","white","no","yes","800","legacy","58","58","0","/Users/tom/github/sft-fraction/results/data/subject-3a.csv","legacy","#757575","low","4","Jazzy James","3.1.9","0","a","NA","space","space","a","a","NA","510","NA","136568","13862","18672","510","NA","2","legacy","1024","2","48000","-16","experiment","3","odd","absent","485923","485923","NA","549449","316731","485906","562333","562853","316766","453352","467233","562853","563366","NA","562318","Fraction component detection task","56","38858","59","yes","1280"
"95","95","658.6","658.6","#808080","no","legacy","legacy","legacy","0","uniform","1","undefined","undefined","undefined","1","l","0","0","0","59","0","0","59","59","0","0","0","59","59","0","59","Wed Apr 25 08:27:12 2018","#757575","low","8","The main experiment item","yes","","experiment.osexp","/Users/tom/github/sft-fraction/procedure","no","mono","no","24","no","white","no","yes","800","legacy","59","59","0","/Users/tom/github/sft-fraction/results/data/subject-3a.csv","legacy","#000000","high","3","Jazzy James","3.1.9","0","l","NA","space","space","a","l","NA","658","NA","136568","13862","18672","658","NA","2","legacy","1024","2","48000","-16","experiment","3","odd","present","485923","485923","NA","549449","316731","485906","563445","563961","316766","453352","467233","563962","564623","NA","563430","Fraction component detection task","57","39516","60","yes","1280"
"95.0819672131","95.0819672131","657.262295082","657.262295082","#808080","no","legacy","legacy","legacy","0","uniform","1","undefined","undefined","undefined","1","a","0","0","0","60","0","0","60","60","0","0","0","60","60","0","60","Wed Apr 25 08:27:12 2018","#757575","low","3","The main experiment item","yes","","experiment.osexp","/Users/tom/github/sft-fraction/procedure","no","mono","no","24","no","white","no","yes","800","legacy","60","60","0","/Users/tom/github/sft-fraction/results/data/subject-3a.csv","legacy","#000000","high","2","Jazzy James","3.1.9","0","a","NA","space","space","a","a","NA","577","NA","136568","13862","18672","577","NA","2","legacy","1024","2","48000","-16","experiment","3","odd","absent","485923","485923","NA","549449","316731","485906","564703","565219","316766","453352","467233","565219","565799","NA","564688","Fraction component detection task","58","40093","61","yes","1280"
"95.1612903226","95.1612903226","660.709677419","660.709677419","#808080","no","legacy","legacy","legacy","0","uniform","1","undefined","undefined","undefined","1","l","0","0","0","61","0","0","61","61","0","0","0","61","61","0","61","Wed Apr 25 08:27:12 2018","#757575","low","4","The main experiment item","yes","","experiment.osexp","/Users/tom/github/sft-fraction/procedure","no","mono","no","24","no","white","no","yes","800","legacy","61","61","0","/Users/tom/github/sft-fraction/results/data/subject-3a.csv","legacy","#000000","high","6","Jazzy James","3.1.9","0","l","NA","space","space","a","l","NA","871","NA","136568","13862","18672","871","NA","2","legacy","1024","2","48000","-16","experiment","3","odd","present","485923","485923","NA","549449","316731","485906","565879","566395","316766","453352","467233","566396","567270","NA","565864","Fraction component detection task","59","40964","62","yes","1280"
"95.2380952381","95.2380952381","658.952380952","658.952380952","#808080","no","legacy","legacy","legacy","0","uniform","1","undefined","undefined","undefined","1","l","0","0","0","62","0","0","62","62","0","0","0","62","62","0","62","Wed Apr 25 08:27:12 2018","#757575","low","2","The main experiment item","yes","","experiment.osexp","/Users/tom/github/sft-fraction/procedure","no","mono","no","24","no","white","no","yes","800","legacy","62","62","0","/Users/tom/github/sft-fraction/results/data/subject-3a.csv","legacy","#757575","low","6","Jazzy James","3.1.9","0","l","NA","space","space","a","l","NA","550","NA","136568","13862","18672","550","NA","2","legacy","1024","2","48000","-16","experiment","3","odd","present","485923","485923","NA","549449","316731","485906","567352","567869","316766","453352","467233","567869","568422","NA","567338","Fraction component detection task","60","41514","63","yes","1280"
"95.3125","95.3125","654.796875","654.796875","#808080","no","legacy","legacy","legacy","0","uniform","1","undefined","undefined","undefined","1","a","0","0","0","63","0","0","63","63","0","0","0","63","63","0","63","Wed Apr 25 08:27:12 2018","#000000","high","3","The main experiment item","yes","","experiment.osexp","/Users/tom/github/sft-fraction/procedure","no","mono","no","24","no","white","no","yes","800","legacy","63","63","0","/Users/tom/github/sft-fraction/results/data/subject-3a.csv","legacy","#000000","high","4","Jazzy James","3.1.9","0","a","NA","space","space","a","a","NA","393","NA","136568","13862","18672","393","NA","2","legacy","1024","2","48000","-16","experiment","3","odd","absent","485923","485923","NA","549449","316731","485906","568506","569025","316766","453352","467233","569026","569422","NA","568490","Fraction component detection task","61","41907","64","yes","1280"
"95.3846153846","95.3846153846","652.138461538","652.138461538","#808080","no","legacy","legacy","legacy","0","uniform","1","undefined","undefined","undefined","1","l","0","0","0","64","0","0","64","64","0","0","0","64","64","0","64","Wed Apr 25 08:27:12 2018","#757575","low","2","The main experiment item","yes","","experiment.osexp","/Users/tom/github/sft-fraction/procedure","no","mono","no","24","no","white","no","yes","800","legacy","64","64","0","/Users/tom/github/sft-fraction/results/data/subject-3a.csv","legacy","#000000","high","7","Jazzy James","3.1.9","0","l","NA","space","space","a","l","NA","482","NA","136568","13862","18672","482","NA","2","legacy","1024","2","48000","-16","experiment","3","odd","present","485923","485923","NA","549449","316731","485906","569507","570025","316766","453352","467233","570026","570510","NA","569491","Fraction component detection task","62","42389","65","yes","1280"
"95.4545454545","95.4545454545","651.196969697","651.196969697","#808080","no","legacy","legacy","legacy","0","uniform","1","undefined","undefined","undefined","1","l","0","0","0","65","0","0","65","65","0","0","0","65","65","0","65","Wed Apr 25 08:27:12 2018","#000000","high","7","The main experiment item","yes","","experiment.osexp","/Users/tom/github/sft-fraction/procedure","no","mono","no","24","no","white","no","yes","800","legacy","65","65","0","/Users/tom/github/sft-fraction/results/data/subject-3a.csv","legacy","#757575","low","3","Jazzy James","3.1.9","0","l","NA","space","space","a","l","NA","590","NA","136568","13862","18672","590","NA","2","legacy","1024","2","48000","-16","experiment","3","odd","present","485923","485923","NA","549449","316731","485906","570595","571111","316766","453352","467233","571111","571703","NA","570575","Fraction component detection task","63","42979","66","yes","1280"
"95.5223880597","95.5223880597","650.343283582","650.343283582","#808080","no","legacy","legacy","legacy","0","uniform","1","undefined","undefined","undefined","1","a","0","0","0","66","0","0","66","66","0","0","0","66","66","0","66","Wed Apr 25 08:27:12 2018","#000000","high","2","The main experiment item","yes","","experiment.osexp","/Users/tom/github/sft-fraction/procedure","no","mono","no","24","no","white","no","yes","800","legacy","66","66","0","/Users/tom/github/sft-fraction/results/data/subject-3a.csv","legacy","#757575","low","3","Jazzy James","3.1.9","0","a","NA","space","space","a","a","NA","594","NA","136568","13862","18672","594","NA","2","legacy","1024","2","48000","-16","experiment","3","odd","absent","485923","485923","NA","549449","316731","485906","571791","572306","316766","453352","467233","572307","572903","NA","571770","Fraction component detection task","64","43573","67","yes","1280"
"95.5882352941","95.5882352941","649.794117647","649.794117647","#808080","no","legacy","legacy","legacy","0","uniform","1","undefined","undefined","undefined","1","l","0","0","0","67","0","0","67","67","0","0","0","67","67","0","67","Wed Apr 25 08:27:12 2018","#757575","low","3","The main experiment item","yes","","experiment.osexp","/Users/tom/github/sft-fraction/procedure","no","mono","no","24","no","white","no","yes","800","legacy","67","67","0","/Users/tom/github/sft-fraction/results/data/subject-3a.csv","legacy","#757575","low","7","Jazzy James","3.1.9","0","l","NA","space","space","a","l","NA","613","NA","136568","13862","18672","613","NA","2","legacy","1024","2","48000","-16","experiment","3","odd","present","485923","485923","NA","549449","316731","485906","572987","573503","316766","453352","467233","573503","574118","NA","572970","Fraction component detection task","65","44186","68","yes","1280"
"95.652173913","95.652173913","648.333333333","648.333333333","#808080","no","legacy","legacy","legacy","0","uniform","1","undefined","undefined","undefined","1","a","0","0","0","68","0","0","68","68","0","0","0","68","68","0","68","Wed Apr 25 08:27:12 2018","#000000","high","4","The main experiment item","yes","","experiment.osexp","/Users/tom/github/sft-fraction/procedure","no","mono","no","24","no","white","no","yes","800","legacy","68","68","0","/Users/tom/github/sft-fraction/results/data/subject-3a.csv","legacy","#757575","low","3","Jazzy James","3.1.9","0","a","NA","space","space","a","a","NA","549","NA","136568","13862","18672","549","NA","2","legacy","1024","2","48000","-16","experiment","3","odd","absent","485923","485923","NA","549449","316731","485906","574203","574719","316766","453352","467233","574719","575270","NA","574188","Fraction component detection task","66","44735","69","yes","1280"
"95.7142857143","95.7142857143","646.042857143","646.042857143","#808080","no","legacy","legacy","legacy","0","uniform","1","undefined","undefined","undefined","1","a","0","0","0","69","0","0","69","69","0","0","0","69","69","0","69","Wed Apr 25 08:27:12 2018","#757575","low","2","The main experiment item","yes","","experiment.osexp","/Users/tom/github/sft-fraction/procedure","no","mono","no","24","no","white","no","yes","800","legacy","69","69","0","/Users/tom/github/sft-fraction/results/data/subject-3a.csv","legacy","#757575","low","3","Jazzy James","3.1.9","0","a","NA","space","space","a","a","NA","488","NA","136568","13862","18672","488","NA","2","legacy","1024","2","48000","-16","experiment","3","odd","absent","485923","485923","NA","549449","316731","485906","575348","575868","316766","453352","467233","575868","576358","NA","575334","Fraction component detection task","67","45223","70","yes","1280"
"95.7746478873","95.7746478873","645.183098592","645.183098592","#808080","no","legacy","legacy","legacy","0","uniform","1","undefined","undefined","undefined","1","l","0","0","0","70","0","0","70","70","0","0","0","70","70","0","70","Wed Apr 25 08:27:12 2018","#757575","low","6","The main experiment item","yes","","experiment.osexp","/Users/tom/github/sft-fraction/procedure","no","mono","no","24","no","white","no","yes","800","legacy","70","70","0","/Users/tom/github/sft-fraction/results/data/subject-3a.csv","legacy","#757575","low","4","Jazzy James","3.1.9","0","l","NA","space","space","a","l","NA","585","NA","136568","13862","18672","585","NA","2","legacy","1024","2","48000","-16","experiment","3","odd","present","485923","485923","NA","549449","316731","485906","576439","576955","316766","453352","467233","576955","577544","NA","576425","Fraction component detection task","68","45808","71","yes","1280"
"95.8333333333","95.8333333333","649.486111111","649.486111111","#808080","no","legacy","legacy","legacy","0","uniform","1","undefined","undefined","undefined","1","l","0","0","0","71","0","0","71","71","0","0","0","71","71","0","71","Wed Apr 25 08:27:12 2018","#757575","low","7","The main experiment item","yes","","experiment.osexp","/Users/tom/github/sft-fraction/procedure","no","mono","no","24","no","white","no","yes","800","legacy","71","71","0","/Users/tom/github/sft-fraction/results/data/subject-3a.csv","legacy","#757575","low","3","Jazzy James","3.1.9","0","l","NA","space","space","a","l","NA","955","NA","136568","13862","18672","955","NA","2","legacy","1024","2","48000","-16","experiment","3","odd","present","485923","485923","NA","549449","316731","485906","577635","578153","316766","453352","467233","578153","579110","NA","577615","Fraction component detection task","69","46763","72","yes","1280"
"95.8904109589","95.8904109589","648.589041096","648.589041096","#808080","no","legacy","legacy","legacy","0","uniform","1","undefined","undefined","undefined","1","l","0","0","0","72","0","0","72","72","0","0","0","72","72","0","72","Wed Apr 25 08:27:12 2018","#000000","high","4","The main experiment item","yes","","experiment.osexp","/Users/tom/github/sft-fraction/procedure","no","mono","no","24","no","white","no","yes","800","legacy","72","72","0","/Users/tom/github/sft-fraction/results/data/subject-3a.csv","legacy","#757575","low","8","Jazzy James","3.1.9","0","l","NA","space","space","a","l","NA","584","NA","136568","13862","18672","584","NA","2","legacy","1024","2","48000","-16","experiment","3","odd","present","485923","485923","NA","549449","316731","485906","579192","579708","316766","453352","467233","579708","580296","NA","579176","Fraction component detection task","70","47347","73","yes","1280"
"95.9459459459","95.9459459459","646.986486486","646.986486486","#808080","no","legacy","legacy","legacy","0","uniform","1","undefined","undefined","undefined","1","a","0","0","0","73","0","0","73","73","0","0","0","73","73","0","73","Wed Apr 25 08:27:12 2018","#757575","low","2","The main experiment item","yes","","experiment.osexp","/Users/tom/github/sft-fraction/procedure","no","mono","no","24","no","white","no","yes","800","legacy","73","73","0","/Users/tom/github/sft-fraction/results/data/subject-3a.csv","legacy","#000000","high","2","Jazzy James","3.1.9","0","a","NA","space","space","a","a","NA","530","NA","136568","13862","18672","530","NA","2","legacy","1024","2","48000","-16","experiment","3","odd","absent","485923","485923","NA","549449","316731","485906","580374","580890","316766","453352","467233","580890","581422","NA","580359","Fraction component detection task","71","47877","74","yes","1280"
"96","96","644.68","644.68","#808080","no","legacy","legacy","legacy","0","uniform","1","undefined","undefined","undefined","1","l","0","0","0","74","0","0","74","74","0","0","0","74","74","0","74","Wed Apr 25 08:27:12 2018","#757575","low","6","The main experiment item","yes","","experiment.osexp","/Users/tom/github/sft-fraction/procedure","no","mono","no","24","no","white","no","yes","800","legacy","74","74","0","/Users/tom/github/sft-fraction/results/data/subject-3a.csv","legacy","#757575","low","6","Jazzy James","3.1.9","0","l","NA","space","space","a","l","NA","474","NA","136568","13862","18672","474","NA","2","legacy","1024","2","48000","-16","experiment","3","odd","present","485923","485923","NA","549449","316731","485906","581508","582025","316766","453352","467233","582026","582502","NA","581491","Fraction component detection task","72","48351","75","yes","1280"
"96.0526315789","96.0526315789","651.697368421","651.697368421","#808080","no","legacy","legacy","legacy","0","uniform","1","undefined","undefined","undefined","1","l","0","0","0","75","0","0","75","75","0","0","0","75","75","0","75","Wed Apr 25 08:27:12 2018","#757575","low","8","The main experiment item","yes","","experiment.osexp","/Users/tom/github/sft-fraction/procedure","no","mono","no","24","no","white","no","yes","800","legacy","75","75","0","/Users/tom/github/sft-fraction/results/data/subject-3a.csv","legacy","#757575","low","3","Jazzy James","3.1.9","0","l","NA","space","space","a","l","NA","1178","NA","136568","13862","18672","1178","NA","2","legacy","1024","2","48000","-16","experiment","3","odd","present","485923","485923","NA","549449","316731","485906","582590","583106","316766","453352","467233","583106","584287","NA","582575","Fraction component detection task","73","49529","76","yes","1280"
"94.8051948052","94.8051948052","653.896103896","653.896103896","#808080","no","legacy","legacy","legacy","0","uniform","0","undefined","undefined","undefined","0","l","0","0","0","76","0","0","76","76","0","0","0","76","76","0","76","Wed Apr 25 08:27:12 2018","#757575","low","2","The main experiment item","yes","","experiment.osexp","/Users/tom/github/sft-fraction/procedure","no","mono","no","24","no","white","no","yes","800","legacy","76","76","0","/Users/tom/github/sft-fraction/results/data/subject-3a.csv","legacy","#757575","low","7","Jazzy James","3.1.9","0","a","NA","space","space","a","a","NA","821","NA","136568","13862","18672","821","NA","2","legacy","1024","2","48000","-16","experiment","3","odd","present","485923","485923","NA","549449","316731","485906","584370","584888","316766","453352","467233","584888","585712","NA","584350","Fraction component detection task","73","50350","77","yes","1280"
"94.8717948718","94.8717948718","654.397435897","654.397435897","#808080","no","legacy","legacy","legacy","0","uniform","1","undefined","undefined","undefined","1","l","0","0","0","77","0","0","77","77","0","0","0","77","77","0","77","Wed Apr 25 08:27:12 2018","#757575","low","8","The main experiment item","yes","","experiment.osexp","/Users/tom/github/sft-fraction/procedure","no","mono","no","24","no","white","no","yes","800","legacy","77","77","0","/Users/tom/github/sft-fraction/results/data/subject-3a.csv","legacy","#757575","low","4","Jazzy James","3.1.9","0","l","NA","space","space","a","l","NA","693","NA","136568","13862","18672","693","NA","2","legacy","1024","2","48000","-16","experiment","3","odd","present","485923","485923","NA","585730","316731","485906","586811","587327","316766","453352","467233","587327","588023","NA","586796","Fraction component detection task","74","51043","78","yes","1280"
"94.9367088608","94.9367088608","653.025316456","653.025316456","#808080","no","legacy","legacy","legacy","0","uniform","1","undefined","undefined","undefined","1","a","0","0","0","78","0","0","78","78","0","0","0","78","78","0","78","Wed Apr 25 08:27:12 2018","#000000","high","2","The main experiment item","yes","","experiment.osexp","/Users/tom/github/sft-fraction/procedure","no","mono","no","24","no","white","no","yes","800","legacy","78","78","0","/Users/tom/github/sft-fraction/results/data/subject-3a.csv","legacy","#000000","high","4","Jazzy James","3.1.9","0","a","NA","space","space","a","a","NA","546","NA","136568","13862","18672","546","NA","2","legacy","1024","2","48000","-16","experiment","3","odd","absent","485923","485923","NA","585730","316731","485906","588107","588626","316766","453352","467233","588626","589175","NA","588090","Fraction component detection task","75","51589","79","yes","1280"
"95","95","651.375","651.375","#808080","no","legacy","legacy","legacy","0","uniform","1","undefined","undefined","undefined","1","l","0","0","0","79","0","0","79","79","0","0","0","79","79","0","79","Wed Apr 25 08:27:12 2018","#000000","high","3","The main experiment item","yes","","experiment.osexp","/Users/tom/github/sft-fraction/procedure","no","mono","no","24","no","white","no","yes","800","legacy","79","79","0","/Users/tom/github/sft-fraction/results/data/subject-3a.csv","legacy","#757575","low","6","Jazzy James","3.1.9","0","l","NA","space","space","a","l","NA","521","NA","136568","13862","18672","521","NA","2","legacy","1024","2","48000","-16","experiment","3","odd","present","485923","485923","NA","585730","316731","485906","589253","589771","316766","453352","467233","589771","590295","NA","589238","Fraction component detection task","76","52110","80","yes","1280"
"95.0617283951","95.0617283951","649.234567901","649.234567901","#808080","no","legacy","legacy","legacy","0","uniform","1","undefined","undefined","undefined","1","l","0","0","0","80","0","0","80","80","0","0","0","80","80","0","80","Wed Apr 25 08:27:12 2018","#000000","high","7","The main experiment item","yes","","experiment.osexp","/Users/tom/github/sft-fraction/procedure","no","mono","no","24","no","white","no","yes","800","legacy","80","80","0","/Users/tom/github/sft-fraction/results/data/subject-3a.csv","legacy","#757575","low","6","Jazzy James","3.1.9","0","l","NA","space","space","a","l","NA","478","NA","136568","13862","18672","478","NA","2","legacy","1024","2","48000","-16","experiment","3","odd","present","485923","485923","NA","585730","316731","485906","590380","590902","316766","453352","467233","590902","591383","NA","590360","Fraction component detection task","77","52588","81","yes","1280"
"95.1219512195","95.1219512195","651.817073171","651.817073171","#808080","no","legacy","legacy","legacy","0","uniform","1","undefined","undefined","undefined","1","l","0","0","0","81","0","0","81","81","0","0","0","81","81","0","81","Wed Apr 25 08:27:12 2018","#000000","high","7","The main experiment item","yes","","experiment.osexp","/Users/tom/github/sft-fraction/procedure","no","mono","no","24","no","white","no","yes","800","legacy","81","81","0","/Users/tom/github/sft-fraction/results/data/subject-3a.csv","legacy","#000000","high","3","Jazzy James","3.1.9","0","l","NA","space","space","a","l","NA","861","NA","136568","13862","18672","861","NA","2","legacy","1024","2","48000","-16","experiment","3","odd","present","485923","485923","NA","585730","316731","485906","591467","591984","316766","453352","467233","591984","592848","NA","591447","Fraction component detection task","78","53449","82","yes","1280"
"95.1807228916","95.1807228916","651.253012048","651.253012048","#808080","no","legacy","legacy","legacy","0","uniform","1","undefined","undefined","undefined","1","l","0","0","0","82","0","0","82","82","0","0","0","82","82","0","82","Wed Apr 25 08:27:12 2018","#757575","low","3","The main experiment item","yes","","experiment.osexp","/Users/tom/github/sft-fraction/procedure","no","mono","no","24","no","white","no","yes","800","legacy","82","82","0","/Users/tom/github/sft-fraction/results/data/subject-3a.csv","legacy","#757575","low","8","Jazzy James","3.1.9","0","l","NA","space","space","a","l","NA","605","NA","136568","13862","18672","605","NA","2","legacy","1024","2","48000","-16","experiment","3","odd","present","485923","485923","NA","585730","316731","485906","592939","593454","316766","453352","467233","593455","594063","NA","592918","Fraction component detection task","79","54054","83","yes","1280"
"95.2380952381","95.2380952381","649.333333333","649.333333333","#808080","no","legacy","legacy","legacy","0","uniform","1","undefined","undefined","undefined","1","a","0","0","0","83","0","0","83","83","0","0","0","83","83","0","83","Wed Apr 25 08:27:12 2018","#757575","low","4","The main experiment item","yes","","experiment.osexp","/Users/tom/github/sft-fraction/procedure","no","mono","no","24","no","white","no","yes","800","legacy","83","83","0","/Users/tom/github/sft-fraction/results/data/subject-3a.csv","legacy","#757575","low","4","Jazzy James","3.1.9","0","a","NA","space","space","a","a","NA","490","NA","136568","13862","18672","490","NA","2","legacy","1024","2","48000","-16","experiment","3","odd","absent","485923","485923","NA","585730","316731","485906","594150","594666","316766","453352","467233","594666","595159","NA","594130","Fraction component detection task","80","54544","84","yes","1280"
"95.2941176471","95.2941176471","647.352941176","647.352941176","#808080","no","legacy","legacy","legacy","0","uniform","1","undefined","undefined","undefined","1","l","0","0","0","84","0","0","84","84","0","0","0","84","84","0","84","Wed Apr 25 08:27:12 2018","#000000","high","2","The main experiment item","yes","","experiment.osexp","/Users/tom/github/sft-fraction/procedure","no","mono","no","24","no","white","no","yes","800","legacy","84","84","0","/Users/tom/github/sft-fraction/results/data/subject-3a.csv","legacy","#000000","high","8","Jazzy James","3.1.9","0","l","NA","space","space","a","l","NA","481","NA","136568","13862","18672","481","NA","2","legacy","1024","2","48000","-16","experiment","3","odd","present","485923","485923","NA","585730","316731","485906","595243","595762","316766","453352","467233","595763","596247","NA","595228","Fraction component detection task","81","55025","85","yes","1280"
"95.3488372093","95.3488372093","646.61627907","646.61627907","#808080","no","legacy","legacy","legacy","0","uniform","1","undefined","undefined","undefined","1","a","0","0","0","85","0","0","85","85","0","0","0","85","85","0","85","Wed Apr 25 08:27:12 2018","#000000","high","3","The main experiment item","yes","","experiment.osexp","/Users/tom/github/sft-fraction/procedure","no","mono","no","24","no","white","no","yes","800","legacy","85","85","0","/Users/tom/github/sft-fraction/results/data/subject-3a.csv","legacy","#757575","low","2","Jazzy James","3.1.9","0","a","NA","space","space","a","a","NA","584","NA","136568","13862","18672","584","NA","2","legacy","1024","2","48000","-16","experiment","3","odd","absent","485923","485923","NA","585730","316731","485906","596336","596852","316766","453352","467233","596852","597439","NA","596315","Fraction component detection task","82","55609","86","yes","1280"
"95.4022988506","95.4022988506","645.83908046","645.83908046","#808080","no","legacy","legacy","legacy","0","uniform","1","undefined","undefined","undefined","1","l","0","0","0","86","0","0","86","86","0","0","0","86","86","0","86","Wed Apr 25 08:27:12 2018","#757575","low","6","The main experiment item","yes","","experiment.osexp","/Users/tom/github/sft-fraction/procedure","no","mono","no","24","no","white","no","yes","800","legacy","86","86","0","/Users/tom/github/sft-fraction/results/data/subject-3a.csv","legacy","#000000","high","6","Jazzy James","3.1.9","0","l","NA","space","space","a","l","NA","579","NA","136568","13862","18672","579","NA","2","legacy","1024","2","48000","-16","experiment","3","odd","present","485923","485923","NA","585730","316731","485906","597525","598042","316766","453352","467233","598042","598624","NA","597510","Fraction component detection task","83","56188","87","yes","1280"
"95.4545454545","95.4545454545","643.852272727","643.852272727","#808080","no","legacy","legacy","legacy","0","uniform","1","undefined","undefined","undefined","1","a","0","0","0","87","0","0","87","87","0","0","0","87","87","0","87","Wed Apr 25 08:27:12 2018","#757575","low","3","The main experiment item","yes","","experiment.osexp","/Users/tom/github/sft-fraction/procedure","no","mono","no","24","no","white","no","yes","800","legacy","87","87","0","/Users/tom/github/sft-fraction/results/data/subject-3a.csv","legacy","#757575","low","2","Jazzy James","3.1.9","0","a","NA","space","space","a","a","NA","471","NA","136568","13862","18672","471","NA","2","legacy","1024","2","48000","-16","experiment","3","odd","absent","485923","485923","NA","585730","316731","485906","598704","599222","316766","453352","467233","599222","599696","NA","598689","Fraction component detection task","84","56659","88","yes","1280"
"95.5056179775","95.5056179775","642.146067416","642.146067416","#808080","no","legacy","legacy","legacy","0","uniform","1","undefined","undefined","undefined","1","l","0","0","0","88","0","0","88","88","0","0","0","88","88","0","88","Wed Apr 25 08:27:12 2018","#757575","low","8","The main experiment item","yes","","experiment.osexp","/Users/tom/github/sft-fraction/procedure","no","mono","no","24","no","white","no","yes","800","legacy","88","88","0","/Users/tom/github/sft-fraction/results/data/subject-3a.csv","legacy","#000000","high","7","Jazzy James","3.1.9","0","l","NA","space","space","a","l","NA","492","NA","136568","13862","18672","492","NA","2","legacy","1024","2","48000","-16","experiment","3","odd","present","485923","485923","NA","585730","316731","485906","599781","600297","316766","453352","467233","600297","600792","NA","599766","Fraction component detection task","85","57151","89","yes","1280"
"94.4444444444","94.4444444444","639.322222222","639.322222222","#808080","no","legacy","legacy","legacy","0","uniform","0","undefined","undefined","undefined","0","a","0","0","0","89","0","0","89","89","0","0","0","89","89","0","89","Wed Apr 25 08:27:12 2018","#757575","low","4","The main experiment item","yes","","experiment.osexp","/Users/tom/github/sft-fraction/procedure","no","mono","no","24","no","white","no","yes","800","legacy","89","89","0","/Users/tom/github/sft-fraction/results/data/subject-3a.csv","legacy","#000000","high","2","Jazzy James","3.1.9","0","l","NA","space","space","a","l","NA","388","NA","136568","13862","18672","388","NA","2","legacy","1024","2","48000","-16","experiment","3","odd","absent","485923","485923","NA","585730","316731","485906","600876","601393","316766","453352","467233","601393","601784","NA","600860","Fraction component detection task","85","57539","90","yes","1280"
"94.5054945055","94.5054945055","638.813186813","638.813186813","#808080","no","legacy","legacy","legacy","0","uniform","1","undefined","undefined","undefined","1","l","0","0","0","90","0","0","90","90","0","0","0","90","90","0","90","Wed Apr 25 08:27:12 2018","#000000","high","3","The main experiment item","yes","","experiment.osexp","/Users/tom/github/sft-fraction/procedure","no","mono","no","24","no","white","no","yes","800","legacy","90","90","0","/Users/tom/github/sft-fraction/results/data/subject-3a.csv","legacy","#000000","high","8","Jazzy James","3.1.9","0","l","NA","space","space","a","l","NA","593","NA","136568","13862","18672","593","NA","2","legacy","1024","2","48000","-16","experiment","3","odd","present","485923","485923","NA","601802","316731","485906","602880","603395","316766","453352","467233","603396","603992","NA","602865","Fraction component detection task","86","58132","91","yes","1280"
"94.5652173913","94.5652173913","639.630434783","639.630434783","#808080","no","legacy","legacy","legacy","0","uniform","1","undefined","undefined","undefined","1","a","0","0","0","91","0","0","91","91","0","0","0","91","91","0","91","Wed Apr 25 08:27:12 2018","#000000","high","4","The main experiment item","yes","","experiment.osexp","/Users/tom/github/sft-fraction/procedure","no","mono","no","24","no","white","no","yes","800","legacy","91","91","0","/Users/tom/github/sft-fraction/results/data/subject-3a.csv","legacy","#000000","high","2","Jazzy James","3.1.9","0","a","NA","space","space","a","a","NA","714","NA","136568","13862","18672","714","NA","2","legacy","1024","2","48000","-16","experiment","3","odd","absent","485923","485923","NA","601802","316731","485906","604077","604594","316766","453352","467233","604594","605311","NA","604056","Fraction component detection task","87","58846","92","yes","1280"
"94.623655914","94.623655914","638.021505376","638.021505376","#808080","no","legacy","legacy","legacy","0","uniform","1","undefined","undefined","undefined","1","a","0","0","0","92","0","0","92","92","0","0","0","92","92","0","92","Wed Apr 25 08:27:12 2018","#757575","low","4","The main experiment item","yes","","experiment.osexp","/Users/tom/github/sft-fraction/procedure","no","mono","no","24","no","white","no","yes","800","legacy","92","92","0","/Users/tom/github/sft-fraction/results/data/subject-3a.csv","legacy","#757575","low","2","Jazzy James","3.1.9","0","a","NA","space","space","a","a","NA","490","NA","136568","13862","18672","490","NA","2","legacy","1024","2","48000","-16","experiment","3","odd","absent","485923","485923","NA","601802","316731","485906","605398","605914","316766","453352","467233","605914","606407","NA","605379","Fraction component detection task","88","59336","93","yes","1280"
"94.6808510638","94.6808510638","638.319148936","638.319148936","#808080","no","legacy","legacy","legacy","0","uniform","1","undefined","undefined","undefined","1","a","0","0","0","93","0","0","93","93","0","0","0","93","93","0","93","Wed Apr 25 08:27:12 2018","#000000","high","3","The main experiment item","yes","","experiment.osexp","/Users/tom/github/sft-fraction/procedure","no","mono","no","24","no","white","no","yes","800","legacy","93","93","0","/Users/tom/github/sft-fraction/results/data/subject-3a.csv","legacy","#757575","low","4","Jazzy James","3.1.9","0","a","NA","space","space","a","a","NA","666","NA","136568","13862","18672","666","NA","2","legacy","1024","2","48000","-16","experiment","3","odd","absent","485923","485923","NA","601802","316731","485906","606487","607003","316766","453352","467233","607003","607672","NA","606469","Fraction component detection task","89","60002","94","yes","1280"
"94.7368421053","94.7368421053","638.768421053","638.768421053","#808080","no","legacy","legacy","legacy","0","uniform","1","undefined","undefined","undefined","1","l","0","0","0","94","0","0","94","94","0","0","0","94","94","0","94","Wed Apr 25 08:27:12 2018","#000000","high","6","The main experiment item","yes","","experiment.osexp","/Users/tom/github/sft-fraction/procedure","no","mono","no","24","no","white","no","yes","800","legacy","94","94","0","/Users/tom/github/sft-fraction/results/data/subject-3a.csv","legacy","#757575","low","2","Jazzy James","3.1.9","0","l","NA","space","space","a","l","NA","681","NA","136568","13862","18672","681","NA","2","legacy","1024","2","48000","-16","experiment","3","odd","present","485923","485923","NA","601802","316731","485906","607760","608276","316766","453352","467233","608276","608960","NA","607745","Fraction component detection task","90","60683","95","yes","1280"
"94.7916666667","94.7916666667","637.947916667","637.947916667","#808080","no","legacy","legacy","legacy","0","uniform","1","undefined","undefined","undefined","1","a","0","0","0","95","0","0","95","95","0","0","0","95","95","0","95","Wed Apr 25 08:27:12 2018","#000000","high","4","The main experiment item","yes","","experiment.osexp","/Users/tom/github/sft-fraction/procedure","no","mono","no","24","no","white","no","yes","800","legacy","95","95","0","/Users/tom/github/sft-fraction/results/data/subject-3a.csv","legacy","#000000","high","2","Jazzy James","3.1.9","0","a","NA","space","space","a","a","NA","560","NA","136568","13862","18672","560","NA","2","legacy","1024","2","48000","-16","experiment","3","odd","absent","485923","485923","NA","601802","316731","485906","609039","609556","316766","453352","467233","609556","610119","NA","609024","Fraction component detection task","91","61243","96","yes","1280"
"94.8453608247","94.8453608247","636.340206186","636.340206186","#808080","no","legacy","legacy","legacy","0","uniform","1","undefined","undefined","undefined","1","a","0","0","0","96","0","0","96","96","0","0","0","96","96","0","96","Wed Apr 25 08:27:12 2018","#757575","low","3","The main experiment item","yes","","experiment.osexp","/Users/tom/github/sft-fraction/procedure","no","mono","no","24","no","white","no","yes","800","legacy","96","96","0","/Users/tom/github/sft-fraction/results/data/subject-3a.csv","legacy","#757575","low","4","Jazzy James","3.1.9","0","a","NA","space","space","a","a","NA","482","NA","136568","13862","18672","482","NA","2","legacy","1024","2","48000","-16","experiment","3","odd","absent","485923","485923","NA","601802","316731","485906","610198","610715","316766","453352","467233","610715","611200","NA","610182","Fraction component detection task","92","61725","97","yes","1280"
"94.8979591837","94.8979591837","633.846938776","633.846938776","#808080","no","legacy","legacy","legacy","0","uniform","1","undefined","undefined","undefined","1","a","0","0","0","97","0","0","97","97","0","0","0","97","97","0","97","Wed Apr 25 08:27:12 2018","#000000","high","2","The main experiment item","yes","","experiment.osexp","/Users/tom/github/sft-fraction/procedure","no","mono","no","24","no","white","no","yes","800","legacy","97","97","0","/Users/tom/github/sft-fraction/results/data/subject-3a.csv","legacy","#000000","high","2","Jazzy James","3.1.9","0","a","NA","space","space","a","a","NA","392","NA","136568","13862","18672","392","NA","2","legacy","1024","2","48000","-16","experiment","3","odd","absent","485923","485923","NA","601802","316731","485906","611279","611796","316766","453352","467233","611796","612192","NA","611264","Fraction component detection task","93","62117","98","yes","1280"
"94.9494949495","94.9494949495","633.202020202","633.202020202","#808080","no","legacy","legacy","legacy","0","uniform","1","undefined","undefined","undefined","1","l","0","0","0","98","0","0","98","98","0","0","0","98","98","0","98","Wed Apr 25 08:27:12 2018","#757575","low","7","The main experiment item","yes","","experiment.osexp","/Users/tom/github/sft-fraction/procedure","no","mono","no","24","no","white","no","yes","800","legacy","98","98","0","/Users/tom/github/sft-fraction/results/data/subject-3a.csv","legacy","#757575","low","2","Jazzy James","3.1.9","0","l","NA","space","space","a","l","NA","570","NA","136568","13862","18672","570","NA","2","legacy","1024","2","48000","-16","experiment","3","odd","present","485923","485923","NA","601802","316731","485906","612277","612794","316766","453352","467233","612794","613367","NA","612261","Fraction component detection task","94","62687","99","yes","1280"
"95","95","631.67","631.67","#808080","no","legacy","legacy","legacy","0","uniform","1","undefined","undefined","undefined","1","a","0","0","0","99","0","0","99","99","0","0","0","99","99","0","99","Wed Apr 25 08:27:12 2018","#757575","low","2","The main experiment item","yes","","experiment.osexp","/Users/tom/github/sft-fraction/procedure","no","mono","no","24","no","white","no","yes","800","legacy","99","99","0","/Users/tom/github/sft-fraction/results/data/subject-3a.csv","legacy","#757575","low","3","Jazzy James","3.1.9","0","a","NA","space","space","a","a","NA","480","NA","136568","13862","18672","480","NA","2","legacy","1024","2","48000","-16","experiment","3","odd","absent","485923","485923","NA","601802","316731","485906","613455","613972","316766","453352","467233","613972","614455","NA","613436","Fraction component detection task","95","63167","100","yes","1280"
"95.0495049505","95.0495049505","630.247524752","630.247524752","#808080","no","legacy","legacy","legacy","0","uniform","1","undefined","undefined","undefined","1","a","0","0","0","100","0","0","100","100","0","0","0","100","100","0","100","Wed Apr 25 08:27:12 2018","#757575","low","3","The main experiment item","yes","","experiment.osexp","/Users/tom/github/sft-fraction/procedure","no","mono","no","24","no","white","no","yes","800","legacy","100","100","0","/Users/tom/github/sft-fraction/results/data/subject-3a.csv","legacy","#000000","high","3","Jazzy James","3.1.9","0","a","NA","space","space","a","a","NA","488","NA","136568","13862","18672","488","NA","2","legacy","1024","2","48000","-16","experiment","3","odd","absent","485923","485923","NA","601802","316731","485906","614536","615052","316766","453352","467233","615052","615543","NA","614521","Fraction component detection task","96","63655","101","yes","1280"
"95.0980392157","95.0980392157","628.696078431","628.696078431","#808080","no","legacy","legacy","legacy","0","uniform","1","undefined","undefined","undefined","1","a","0","0","0","101","0","0","101","101","0","0","0","101","101","0","101","Wed Apr 25 08:27:12 2018","#000000","high","4","The main experiment item","yes","","experiment.osexp","/Users/tom/github/sft-fraction/procedure","no","mono","no","24","no","white","no","yes","800","legacy","101","101","0","/Users/tom/github/sft-fraction/results/data/subject-3a.csv","legacy","#757575","low","4","Jazzy James","3.1.9","0","a","NA","space","space","a","a","NA","472","NA","136568","13862","18672","472","NA","2","legacy","1024","2","48000","-16","experiment","3","odd","absent","485923","485923","NA","601802","316731","485906","615630","616149","316766","453352","467233","616149","616624","NA","615610","Fraction component detection task","97","64127","102","yes","1280"
"95.145631068","95.145631068","628.388349515","628.388349515","#808080","no","legacy","legacy","legacy","0","uniform","1","undefined","undefined","undefined","1","l","0","0","0","102","0","0","102","102","0","0","0","102","102","0","102","Wed Apr 25 08:27:12 2018","#000000","high","7","The main experiment item","yes","","experiment.osexp","/Users/tom/github/sft-fraction/procedure","no","mono","no","24","no","white","no","yes","800","legacy","102","102","0","/Users/tom/github/sft-fraction/results/data/subject-3a.csv","legacy","#000000","high","4","Jazzy James","3.1.9","0","l","NA","space","space","a","l","NA","597","NA","136568","13862","18672","597","NA","2","legacy","1024","2","48000","-16","experiment","3","odd","present","485923","485923","NA","601802","316731","485906","616708","617224","316766","453352","467233","617224","617824","NA","616693","Fraction component detection task","98","64724","103","yes","1280"
"95.1923076923","95.1923076923","627.067307692","627.067307692","#808080","no","legacy","legacy","legacy","0","uniform","1","undefined","undefined","undefined","1","a","0","0","0","103","0","0","103","103","0","0","0","103","103","0","103","Wed Apr 25 08:27:12 2018","#757575","low","4","The main experiment item","yes","","experiment.osexp","/Users/tom/github/sft-fraction/procedure","no","mono","no","24","no","white","no","yes","800","legacy","103","103","0","/Users/tom/github/sft-fraction/results/data/subject-3a.csv","legacy","#757575","low","3","Jazzy James","3.1.9","0","a","NA","space","space","a","a","NA","491","NA","136568","13862","18672","491","NA","2","legacy","1024","2","48000","-16","experiment","3","odd","absent","485923","485923","NA","601802","316731","485906","617903","618419","316766","453352","467233","618419","618912","NA","617888","Fraction component detection task","99","65215","104","yes","1280"
"95.2380952381","95.2380952381","625.828571429","625.828571429","#808080","no","legacy","legacy","legacy","0","uniform","1","undefined","undefined","undefined","1","l","0","0","0","104","0","0","104","104","0","0","0","104","104","0","104","Wed Apr 25 08:27:12 2018","#000000","high","8","The main experiment item","yes","","experiment.osexp","/Users/tom/github/sft-fraction/procedure","no","mono","no","24","no","white","no","yes","800","legacy","104","104","0","/Users/tom/github/sft-fraction/results/data/subject-3a.csv","legacy","#000000","high","2","Jazzy James","3.1.9","0","l","NA","space","space","a","l","NA","497","NA","136568","13862","18672","497","NA","2","legacy","1024","2","48000","-16","experiment","3","odd","present","485923","485923","NA","601802","316731","485906","618996","619515","316766","453352","467233","619515","620015","NA","618976","Fraction component detection task","100","65712","105","yes","1280"
"95.2830188679","95.2830188679","624.886792453","624.886792453","#808080","no","legacy","legacy","legacy","0","uniform","1","undefined","undefined","undefined","1","a","0","0","0","105","0","0","105","105","0","0","0","105","105","0","105","Wed Apr 25 08:27:12 2018","#000000","high","4","The main experiment item","yes","","experiment.osexp","/Users/tom/github/sft-fraction/procedure","no","mono","no","24","no","white","no","yes","800","legacy","105","105","0","/Users/tom/github/sft-fraction/results/data/subject-3a.csv","legacy","#000000","high","4","Jazzy James","3.1.9","0","a","NA","space","space","a","a","NA","526","NA","136568","13862","18672","526","NA","2","legacy","1024","2","48000","-16","experiment","3","odd","absent","485923","485923","NA","601802","316731","485906","620094","620614","316766","453352","467233","620615","621144","NA","620079","Fraction component detection task","101","66238","106","yes","1280"
"95.3271028037","95.3271028037","624.46728972","624.46728972","#808080","no","legacy","legacy","legacy","0","uniform","1","undefined","undefined","undefined","1","a","0","0","0","106","0","0","106","106","0","0","0","106","106","0","106","Wed Apr 25 08:27:12 2018","#757575","low","4","The main experiment item","yes","","experiment.osexp","/Users/tom/github/sft-fraction/procedure","no","mono","no","24","no","white","no","yes","800","legacy","106","106","0","/Users/tom/github/sft-fraction/results/data/subject-3a.csv","legacy","#757575","low","2","Jazzy James","3.1.9","0","a","NA","space","space","a","a","NA","580","NA","136568","13862","18672","580","NA","2","legacy","1024","2","48000","-16","experiment","3","odd","absent","485923","485923","NA","601802","316731","485906","621228","621745","316766","453352","467233","621745","622327","NA","621214","Fraction component detection task","102","66818","107","yes","1280"
