"acc","accuracy","average_response_time","avg_rt","background","bidi","canvas_backend","clock_backend","color_backend","compensation","coordinates","correct","correct_instructions1","correct_instructions2","correct_instructions3","correct_keyboard_response","correct_response","count_block_loop","count_block_sequence","count_end_of_experiment","count_error","count_experiment","count_experimental_loop","count_fixation_dot","count_fraction","count_instructions1","count_instructions2","count_instructions3","count_keyboard_response","count_logger","count_rest","count_trial_sequence","datetime","denomColor","denomSalience","denominator","description","disable_garbage_collection","empty_column","experiment_file","experiment_path","font_bold","font_family","font_italic","font_size","font_underline","foreground","form_clicks","fullscreen","height","keyboard_backend","live_row","live_row_block_loop","live_row_experimental_loop","logfile","mouse_backend","numColor","numSalience","numerator","opensesame_codename","opensesame_version","repeat_cycle","response","response_end_of_experiment","response_instructions1","response_instructions2","response_instructions3","response_keyboard_response","response_rest","response_time","response_time_end_of_experiment","response_time_instructions1","response_time_instructions2","response_time_instructions3","response_time_keyboard_response","response_time_rest","round_decimals","sampler_backend","sound_buf_size","sound_channels","sound_freq","sound_sample_size","start","subject_nr","subject_parity","target","time_block_loop","time_block_sequence","time_end_of_experiment","time_error","time_experiment","time_experimental_loop","time_fixation_dot","time_fraction","time_instructions1","time_instructions2","time_instructions3","time_keyboard_response","time_logger","time_rest","time_trial_sequence","title","total_correct","total_response_time","total_responses","uniform_coordinates","width"
"100","100","3100","3100","#808080","no","legacy","legacy","legacy","0","uniform","1","undefined","undefined","undefined","1","a","0","0","0","0","0","0","0","0","0","0","0","0","0","0","0","Fri Apr 27 13:03:26 2018","#757575","low","3","The main experiment item","yes","","experiment.osexp","/Users/tom/github/sft-fraction/procedure","no","mono","no","24","no","white","no","yes","800","legacy","0","0","0","/Users/tom/github/sft-fraction/results/data/subject-5a.csv","legacy","#757575","low","3","Jazzy James","3.1.9","0","a","NA","space","space","space","a","NA","3100","NA","148901","11392","7534","3100","NA","2","legacy","1024","2","48000","-16","experiment","5","odd","absent","169250","169250","NA","NA","1312","169234","169297","169814","1371","150289","161699","169814","172915","NA","169281","Fraction component detection task","1","3100","1","yes","1280"
"100","100","1969.5","1969.5","#808080","no","legacy","legacy","legacy","0","uniform","1","undefined","undefined","undefined","1","a","0","0","0","1","0","0","1","1","0","0","0","1","1","0","1","Fri Apr 27 13:03:26 2018","#000000","high","4","The main experiment item","yes","","experiment.osexp","/Users/tom/github/sft-fraction/procedure","no","mono","no","24","no","white","no","yes","800","legacy","1","1","0","/Users/tom/github/sft-fraction/results/data/subject-5a.csv","legacy","#000000","high","4","Jazzy James","3.1.9","0","a","NA","space","space","space","a","NA","839","NA","148901","11392","7534","839","NA","2","legacy","1024","2","48000","-16","experiment","5","odd","absent","169250","169250","NA","NA","1312","169234","173014","173531","1371","150289","161699","173531","174372","NA","172994","Fraction component detection task","2","3939","2","yes","1280"
"100","100","1616.66666667","1616.66666667","#808080","no","legacy","legacy","legacy","0","uniform","1","undefined","undefined","undefined","1","l","0","0","0","2","0","0","2","2","0","0","0","2","2","0","2","Fri Apr 27 13:03:26 2018","#757575","low","7","The main experiment item","yes","","experiment.osexp","/Users/tom/github/sft-fraction/procedure","no","mono","no","24","no","white","no","yes","800","legacy","2","2","0","/Users/tom/github/sft-fraction/results/data/subject-5a.csv","legacy","#757575","low","8","Jazzy James","3.1.9","0","l","NA","space","space","space","l","NA","911","NA","148901","11392","7534","911","NA","2","legacy","1024","2","48000","-16","experiment","5","odd","present","169250","169250","NA","NA","1312","169234","174454","174971","1371","150289","161699","174971","175889","NA","174434","Fraction component detection task","3","4850","3","yes","1280"
"100","100","1372.75","1372.75","#808080","no","legacy","legacy","legacy","0","uniform","1","undefined","undefined","undefined","1","a","0","0","0","3","0","0","3","3","0","0","0","3","3","0","3","Fri Apr 27 13:03:26 2018","#757575","low","2","The main experiment item","yes","","experiment.osexp","/Users/tom/github/sft-fraction/procedure","no","mono","no","24","no","white","no","yes","800","legacy","3","3","0","/Users/tom/github/sft-fraction/results/data/subject-5a.csv","legacy","#757575","low","3","Jazzy James","3.1.9","0","a","NA","space","space","space","a","NA","641","NA","148901","11392","7534","641","NA","2","legacy","1024","2","48000","-16","experiment","5","odd","absent","169250","169250","NA","NA","1312","169234","175977","176496","1371","150289","161699","176496","177139","NA","175961","Fraction component detection task","4","5491","4","yes","1280"
"100","100","1306","1306","#808080","no","legacy","legacy","legacy","0","uniform","1","undefined","undefined","undefined","1","l","0","0","0","4","0","0","4","4","0","0","0","4","4","0","4","Fri Apr 27 13:03:26 2018","#757575","low","8","The main experiment item","yes","","experiment.osexp","/Users/tom/github/sft-fraction/procedure","no","mono","no","24","no","white","no","yes","800","legacy","4","4","0","/Users/tom/github/sft-fraction/results/data/subject-5a.csv","legacy","#000000","high","6","Jazzy James","3.1.9","0","l","NA","space","space","space","l","NA","1039","NA","148901","11392","7534","1039","NA","2","legacy","1024","2","48000","-16","experiment","5","odd","present","169250","169250","NA","NA","1312","169234","177222","177739","1371","150289","161699","177739","178781","NA","177202","Fraction component detection task","5","6530","5","yes","1280"
"100","100","1252.5","1252.5","#808080","no","legacy","legacy","legacy","0","uniform","1","undefined","undefined","undefined","1","l","0","0","0","5","0","0","5","5","0","0","0","5","5","0","5","Fri Apr 27 13:03:26 2018","#757575","low","8","The main experiment item","yes","","experiment.osexp","/Users/tom/github/sft-fraction/procedure","no","mono","no","24","no","white","no","yes","800","legacy","5","5","0","/Users/tom/github/sft-fraction/results/data/subject-5a.csv","legacy","#000000","high","4","Jazzy James","3.1.9","0","l","NA","space","space","space","l","NA","985","NA","148901","11392","7534","985","NA","2","legacy","1024","2","48000","-16","experiment","5","odd","present","169250","169250","NA","NA","1312","169234","178867","179385","1371","150289","161699","179385","180372","NA","178844","Fraction component detection task","6","7515","6","yes","1280"
"100","100","1199.42857143","1199.42857143","#808080","no","legacy","legacy","legacy","0","uniform","1","undefined","undefined","undefined","1","a","0","0","0","6","0","0","6","6","0","0","0","6","6","0","6","Fri Apr 27 13:03:26 2018","#757575","low","4","The main experiment item","yes","","experiment.osexp","/Users/tom/github/sft-fraction/procedure","no","mono","no","24","no","white","no","yes","800","legacy","6","6","0","/Users/tom/github/sft-fraction/results/data/subject-5a.csv","legacy","#000000","high","3","Jazzy James","3.1.9","0","a","NA","space","space","space","a","NA","881","NA","148901","11392","7534","881","NA","2","legacy","1024","2","48000","-16","experiment","5","odd","absent","169250","169250","NA","NA","1312","169234","180452","180968","1371","150289","161699","180969","181852","NA","180437","Fraction component detection task","7","8396","7","yes","1280"
"100","100","1171.75","1171.75","#808080","no","legacy","legacy","legacy","0","uniform","1","undefined","undefined","undefined","1","l","0","0","0","7","0","0","7","7","0","0","0","7","7","0","7","Fri Apr 27 13:03:26 2018","#757575","low","8","The main experiment item","yes","","experiment.osexp","/Users/tom/github/sft-fraction/procedure","no","mono","no","24","no","white","no","yes","800","legacy","7","7","0","/Users/tom/github/sft-fraction/results/data/subject-5a.csv","legacy","#757575","low","4","Jazzy James","3.1.9","0","l","NA","space","space","space","l","NA","978","NA","148901","11392","7534","978","NA","2","legacy","1024","2","48000","-16","experiment","5","odd","present","169250","169250","NA","NA","1312","169234","181937","182456","1371","150289","161699","182456","183436","NA","181922","Fraction component detection task","8","9374","8","yes","1280"
"100","100","1108.44444444","1108.44444444","#808080","no","legacy","legacy","legacy","0","uniform","1","undefined","undefined","undefined","1","a","0","0","0","8","0","0","8","8","0","0","0","8","8","0","8","Fri Apr 27 13:03:26 2018","#757575","low","2","The main experiment item","yes","","experiment.osexp","/Users/tom/github/sft-fraction/procedure","no","mono","no","24","no","white","no","yes","800","legacy","8","8","0","/Users/tom/github/sft-fraction/results/data/subject-5a.csv","legacy","#757575","low","2","Jazzy James","3.1.9","0","a","NA","space","space","space","a","NA","602","NA","148901","11392","7534","602","NA","2","legacy","1024","2","48000","-16","experiment","5","odd","absent","169250","169250","NA","NA","1312","169234","183517","184040","1371","150289","161699","184040","184644","NA","183502","Fraction component detection task","9","9976","9","yes","1280"
"100","100","1073","1073","#808080","no","legacy","legacy","legacy","0","uniform","1","undefined","undefined","undefined","1","l","0","0","0","9","0","0","9","9","0","0","0","9","9","0","9","Fri Apr 27 13:03:26 2018","#757575","low","8","The main experiment item","yes","","experiment.osexp","/Users/tom/github/sft-fraction/procedure","no","mono","no","24","no","white","no","yes","800","legacy","9","9","0","/Users/tom/github/sft-fraction/results/data/subject-5a.csv","legacy","#757575","low","2","Jazzy James","3.1.9","0","l","NA","space","space","space","l","NA","754","NA","148901","11392","7534","754","NA","2","legacy","1024","2","48000","-16","experiment","5","odd","present","169250","169250","NA","NA","1312","169234","184730","185247","1371","150289","161699","185247","186003","NA","184712","Fraction component detection task","10","10730","10","yes","1280"
"100","100","1072.63636364","1072.63636364","#808080","no","legacy","legacy","legacy","0","uniform","1","undefined","undefined","undefined","1","l","0","0","0","10","0","0","10","10","0","0","0","10","10","0","10","Fri Apr 27 13:03:26 2018","#757575","low","7","The main experiment item","yes","","experiment.osexp","/Users/tom/github/sft-fraction/procedure","no","mono","no","24","no","white","no","yes","800","legacy","10","10","0","/Users/tom/github/sft-fraction/results/data/subject-5a.csv","legacy","#757575","low","2","Jazzy James","3.1.9","0","l","NA","space","space","space","l","NA","1069","NA","148901","11392","7534","1069","NA","2","legacy","1024","2","48000","-16","experiment","5","odd","present","169250","169250","NA","NA","1312","169234","186089","186606","1371","150289","161699","186606","187676","NA","186068","Fraction component detection task","11","11799","11","yes","1280"
"100","100","1043.33333333","1043.33333333","#808080","no","legacy","legacy","legacy","0","uniform","1","undefined","undefined","undefined","1","l","0","0","0","11","0","0","11","11","0","0","0","11","11","0","11","Fri Apr 27 13:03:26 2018","#757575","low","2","The main experiment item","yes","","experiment.osexp","/Users/tom/github/sft-fraction/procedure","no","mono","no","24","no","white","no","yes","800","legacy","11","11","0","/Users/tom/github/sft-fraction/results/data/subject-5a.csv","legacy","#000000","high","7","Jazzy James","3.1.9","0","l","NA","space","space","space","l","NA","721","NA","148901","11392","7534","721","NA","2","legacy","1024","2","48000","-16","experiment","5","odd","present","169250","169250","NA","NA","1312","169234","187758","188274","1371","150289","161699","188274","188996","NA","187741","Fraction component detection task","12","12520","12","yes","1280"
"100","100","1035.84615385","1035.84615385","#808080","no","legacy","legacy","legacy","0","uniform","1","undefined","undefined","undefined","1","a","0","0","0","12","0","0","12","12","0","0","0","12","12","0","12","Fri Apr 27 13:03:26 2018","#757575","low","2","The main experiment item","yes","","experiment.osexp","/Users/tom/github/sft-fraction/procedure","no","mono","no","24","no","white","no","yes","800","legacy","12","12","0","/Users/tom/github/sft-fraction/results/data/subject-5a.csv","legacy","#757575","low","4","Jazzy James","3.1.9","0","a","NA","space","space","space","a","NA","946","NA","148901","11392","7534","946","NA","2","legacy","1024","2","48000","-16","experiment","5","odd","absent","169250","169250","NA","NA","1312","169234","189075","189593","1371","150289","161699","189593","190540","NA","189060","Fraction component detection task","13","13466","13","yes","1280"
"100","100","1019.85714286","1019.85714286","#808080","no","legacy","legacy","legacy","0","uniform","1","undefined","undefined","undefined","1","a","0","0","0","13","0","0","13","13","0","0","0","13","13","0","13","Fri Apr 27 13:03:26 2018","#000000","high","2","The main experiment item","yes","","experiment.osexp","/Users/tom/github/sft-fraction/procedure","no","mono","no","24","no","white","no","yes","800","legacy","13","13","0","/Users/tom/github/sft-fraction/results/data/subject-5a.csv","legacy","#000000","high","3","Jazzy James","3.1.9","0","a","NA","space","space","space","a","NA","812","NA","148901","11392","7534","812","NA","2","legacy","1024","2","48000","-16","experiment","5","odd","absent","169250","169250","NA","NA","1312","169234","190630","191150","1371","150289","161699","191151","191965","NA","190609","Fraction component detection task","14","14278","14","yes","1280"
"100","100","986.733333333","986.733333333","#808080","no","legacy","legacy","legacy","0","uniform","1","undefined","undefined","undefined","1","a","0","0","0","14","0","0","14","14","0","0","0","14","14","0","14","Fri Apr 27 13:03:26 2018","#757575","low","3","The main experiment item","yes","","experiment.osexp","/Users/tom/github/sft-fraction/procedure","no","mono","no","24","no","white","no","yes","800","legacy","14","14","0","/Users/tom/github/sft-fraction/results/data/subject-5a.csv","legacy","#000000","high","3","Jazzy James","3.1.9","0","a","NA","space","space","space","a","NA","523","NA","148901","11392","7534","523","NA","2","legacy","1024","2","48000","-16","experiment","5","odd","absent","169250","169250","NA","NA","1312","169234","192049","192567","1371","150289","161699","192567","193092","NA","192032","Fraction component detection task","15","14801","15","yes","1280"
"100","100","971.75","971.75","#808080","no","legacy","legacy","legacy","0","uniform","1","undefined","undefined","undefined","1","a","0","0","0","15","0","0","15","15","0","0","0","15","15","0","15","Fri Apr 27 13:03:26 2018","#000000","high","2","The main experiment item","yes","","experiment.osexp","/Users/tom/github/sft-fraction/procedure","no","mono","no","24","no","white","no","yes","800","legacy","15","15","0","/Users/tom/github/sft-fraction/results/data/subject-5a.csv","legacy","#757575","low","4","Jazzy James","3.1.9","0","a","NA","space","space","space","a","NA","747","NA","148901","11392","7534","747","NA","2","legacy","1024","2","48000","-16","experiment","5","odd","absent","169250","169250","NA","NA","1312","169234","193177","193695","1371","150289","161699","193696","194445","NA","193159","Fraction component detection task","16","15548","16","yes","1280"
"100","100","966.411764706","966.411764706","#808080","no","legacy","legacy","legacy","0","uniform","1","undefined","undefined","undefined","1","a","0","0","0","16","0","0","16","16","0","0","0","16","16","0","16","Fri Apr 27 13:03:26 2018","#000000","high","3","The main experiment item","yes","","experiment.osexp","/Users/tom/github/sft-fraction/procedure","no","mono","no","24","no","white","no","yes","800","legacy","16","16","0","/Users/tom/github/sft-fraction/results/data/subject-5a.csv","legacy","#757575","low","2","Jazzy James","3.1.9","0","a","NA","space","space","space","a","NA","881","NA","148901","11392","7534","881","NA","2","legacy","1024","2","48000","-16","experiment","5","odd","absent","169250","169250","NA","NA","1312","169234","194525","195042","1371","150289","161699","195042","195925","NA","194509","Fraction component detection task","17","16429","17","yes","1280"
"100","100","944.333333333","944.333333333","#808080","no","legacy","legacy","legacy","0","uniform","1","undefined","undefined","undefined","1","a","0","0","0","17","0","0","17","17","0","0","0","17","17","0","17","Fri Apr 27 13:03:26 2018","#000000","high","4","The main experiment item","yes","","experiment.osexp","/Users/tom/github/sft-fraction/procedure","no","mono","no","24","no","white","no","yes","800","legacy","17","17","0","/Users/tom/github/sft-fraction/results/data/subject-5a.csv","legacy","#000000","high","4","Jazzy James","3.1.9","0","a","NA","space","space","space","a","NA","569","NA","148901","11392","7534","569","NA","2","legacy","1024","2","48000","-16","experiment","5","odd","absent","169250","169250","NA","NA","1312","169234","196004","196521","1371","150289","161699","196521","197092","NA","195989","Fraction component detection task","18","16998","18","yes","1280"
"100","100","919.421052632","919.421052632","#808080","no","legacy","legacy","legacy","0","uniform","1","undefined","undefined","undefined","1","l","0","0","0","18","0","0","18","18","0","0","0","18","18","0","18","Fri Apr 27 13:03:26 2018","#000000","high","2","The main experiment item","yes","","experiment.osexp","/Users/tom/github/sft-fraction/procedure","no","mono","no","24","no","white","no","yes","800","legacy","18","18","0","/Users/tom/github/sft-fraction/results/data/subject-5a.csv","legacy","#000000","high","7","Jazzy James","3.1.9","0","l","NA","space","space","space","l","NA","471","NA","148901","11392","7534","471","NA","2","legacy","1024","2","48000","-16","experiment","5","odd","present","169250","169250","NA","NA","1312","169234","197181","197698","1371","150289","161699","197699","198172","NA","197162","Fraction component detection task","19","17469","19","yes","1280"
"100","100","900.9","900.9","#808080","no","legacy","legacy","legacy","0","uniform","1","undefined","undefined","undefined","1","a","0","0","0","19","0","0","19","19","0","0","0","19","19","0","19","Fri Apr 27 13:03:26 2018","#757575","low","2","The main experiment item","yes","","experiment.osexp","/Users/tom/github/sft-fraction/procedure","no","mono","no","24","no","white","no","yes","800","legacy","19","19","0","/Users/tom/github/sft-fraction/results/data/subject-5a.csv","legacy","#757575","low","3","Jazzy James","3.1.9","0","a","NA","space","space","space","a","NA","549","NA","148901","11392","7534","549","NA","2","legacy","1024","2","48000","-16","experiment","5","odd","absent","169250","169250","NA","NA","1312","169234","198257","198773","1371","150289","161699","198774","199325","NA","198236","Fraction component detection task","20","18018","20","yes","1280"
"100","100","884.952380952","884.952380952","#808080","no","legacy","legacy","legacy","0","uniform","1","undefined","undefined","undefined","1","a","0","0","0","20","0","0","20","20","0","0","0","20","20","0","20","Fri Apr 27 13:03:26 2018","#000000","high","2","The main experiment item","yes","","experiment.osexp","/Users/tom/github/sft-fraction/procedure","no","mono","no","24","no","white","no","yes","800","legacy","20","20","0","/Users/tom/github/sft-fraction/results/data/subject-5a.csv","legacy","#000000","high","3","Jazzy James","3.1.9","0","a","NA","space","space","space","a","NA","566","NA","148901","11392","7534","566","NA","2","legacy","1024","2","48000","-16","experiment","5","odd","absent","169250","169250","NA","NA","1312","169234","199408","199924","1371","150289","161699","199925","200493","NA","199391","Fraction component detection task","21","18584","21","yes","1280"
"100","100","872","872","#808080","no","legacy","legacy","legacy","0","uniform","1","undefined","undefined","undefined","1","l","0","0","0","21","0","0","21","21","0","0","0","21","21","0","21","Fri Apr 27 13:03:26 2018","#757575","low","2","The main experiment item","yes","","experiment.osexp","/Users/tom/github/sft-fraction/procedure","no","mono","no","24","no","white","no","yes","800","legacy","21","21","0","/Users/tom/github/sft-fraction/results/data/subject-5a.csv","legacy","#757575","low","8","Jazzy James","3.1.9","0","l","NA","space","space","space","l","NA","600","NA","148901","11392","7534","600","NA","2","legacy","1024","2","48000","-16","experiment","5","odd","present","169250","169250","NA","NA","1312","169234","200574","201090","1371","150289","161699","201091","201693","NA","200556","Fraction component detection task","22","19184","22","yes","1280"
"100","100","866.434782609","866.434782609","#808080","no","legacy","legacy","legacy","0","uniform","1","undefined","undefined","undefined","1","l","0","0","0","22","0","0","22","22","0","0","0","22","22","0","22","Fri Apr 27 13:03:26 2018","#000000","high","6","The main experiment item","yes","","experiment.osexp","/Users/tom/github/sft-fraction/procedure","no","mono","no","24","no","white","no","yes","800","legacy","22","22","0","/Users/tom/github/sft-fraction/results/data/subject-5a.csv","legacy","#757575","low","7","Jazzy James","3.1.9","0","l","NA","space","space","space","l","NA","744","NA","148901","11392","7534","744","NA","2","legacy","1024","2","48000","-16","experiment","5","odd","present","169250","169250","NA","NA","1312","169234","201776","202298","1371","150289","161699","202298","203044","NA","201761","Fraction component detection task","23","19928","23","yes","1280"
"100","100","849.916666667","849.916666667","#808080","no","legacy","legacy","legacy","0","uniform","1","undefined","undefined","undefined","1","l","0","0","0","23","0","0","23","23","0","0","0","23","23","0","23","Fri Apr 27 13:03:26 2018","#000000","high","3","The main experiment item","yes","","experiment.osexp","/Users/tom/github/sft-fraction/procedure","no","mono","no","24","no","white","no","yes","800","legacy","23","23","0","/Users/tom/github/sft-fraction/results/data/subject-5a.csv","legacy","#000000","high","8","Jazzy James","3.1.9","0","l","NA","space","space","space","l","NA","470","NA","148901","11392","7534","470","NA","2","legacy","1024","2","48000","-16","experiment","5","odd","present","169250","169250","NA","NA","1312","169234","203127","203644","1371","150289","161699","203644","204116","NA","203111","Fraction component detection task","24","20398","24","yes","1280"
"100","100","844.4","844.4","#808080","no","legacy","legacy","legacy","0","uniform","1","undefined","undefined","undefined","1","a","0","0","0","24","0","0","24","24","0","0","0","24","24","0","24","Fri Apr 27 13:03:26 2018","#757575","low","3","The main experiment item","yes","","experiment.osexp","/Users/tom/github/sft-fraction/procedure","no","mono","no","24","no","white","no","yes","800","legacy","24","24","0","/Users/tom/github/sft-fraction/results/data/subject-5a.csv","legacy","#000000","high","4","Jazzy James","3.1.9","0","a","NA","space","space","space","a","NA","712","NA","148901","11392","7534","712","NA","2","legacy","1024","2","48000","-16","experiment","5","odd","absent","169250","169250","NA","NA","1312","169234","204207","204724","1371","150289","161699","204724","205438","NA","204185","Fraction component detection task","25","21110","25","yes","1280"
"100","100","832.576923077","832.576923077","#808080","no","legacy","legacy","legacy","0","uniform","1","undefined","undefined","undefined","1","a","0","0","0","25","0","0","25","25","0","0","0","25","25","0","25","Fri Apr 27 13:03:26 2018","#757575","low","3","The main experiment item","yes","","experiment.osexp","/Users/tom/github/sft-fraction/procedure","no","mono","no","24","no","white","no","yes","800","legacy","25","25","0","/Users/tom/github/sft-fraction/results/data/subject-5a.csv","legacy","#000000","high","4","Jazzy James","3.1.9","0","a","NA","space","space","space","a","NA","537","NA","148901","11392","7534","537","NA","2","legacy","1024","2","48000","-16","experiment","5","odd","absent","169250","169250","NA","NA","1312","169234","205532","206051","1371","150289","161699","206051","206589","NA","205509","Fraction component detection task","26","21647","26","yes","1280"
"100","100","827.592592593","827.592592593","#808080","no","legacy","legacy","legacy","0","uniform","1","undefined","undefined","undefined","1","l","0","0","0","26","0","0","26","26","0","0","0","26","26","0","26","Fri Apr 27 13:03:26 2018","#757575","low","6","The main experiment item","yes","","experiment.osexp","/Users/tom/github/sft-fraction/procedure","no","mono","no","24","no","white","no","yes","800","legacy","26","26","0","/Users/tom/github/sft-fraction/results/data/subject-5a.csv","legacy","#000000","high","8","Jazzy James","3.1.9","0","l","NA","space","space","space","l","NA","698","NA","148901","11392","7534","698","NA","2","legacy","1024","2","48000","-16","experiment","5","odd","present","169250","169250","NA","NA","1312","169234","206677","207193","1371","150289","161699","207194","207894","NA","206657","Fraction component detection task","27","22345","27","yes","1280"
"100","100","823.5","823.5","#808080","no","legacy","legacy","legacy","0","uniform","1","undefined","undefined","undefined","1","l","0","0","0","27","0","0","27","27","0","0","0","27","27","0","27","Fri Apr 27 13:03:26 2018","#000000","high","8","The main experiment item","yes","","experiment.osexp","/Users/tom/github/sft-fraction/procedure","no","mono","no","24","no","white","no","yes","800","legacy","27","27","0","/Users/tom/github/sft-fraction/results/data/subject-5a.csv","legacy","#757575","low","2","Jazzy James","3.1.9","0","l","NA","space","space","space","l","NA","713","NA","148901","11392","7534","713","NA","2","legacy","1024","2","48000","-16","experiment","5","odd","present","169250","169250","NA","NA","1312","169234","207982","208498","1371","150289","161699","208498","209213","NA","207961","Fraction component detection task","28","23058","28","yes","1280"
"96.5517241379","96.5517241379","824.655172414","824.655172414","#808080","no","legacy","legacy","legacy","0","uniform","0","undefined","undefined","undefined","0","l","0","0","0","28","0","0","28","28","0","0","0","28","28","0","28","Fri Apr 27 13:03:26 2018","#757575","low","6","The main experiment item","yes","","experiment.osexp","/Users/tom/github/sft-fraction/procedure","no","mono","no","24","no","white","no","yes","800","legacy","28","28","0","/Users/tom/github/sft-fraction/results/data/subject-5a.csv","legacy","#000000","high","3","Jazzy James","3.1.9","0","a","NA","space","space","space","a","NA","857","NA","148901","11392","7534","857","NA","2","legacy","1024","2","48000","-16","experiment","5","odd","present","169250","169250","NA","NA","1312","169234","209294","209811","1371","150289","161699","209811","210670","NA","209279","Fraction component detection task","28","23915","29","yes","1280"
"96.6666666667","96.6666666667","883.933333333","883.933333333","#808080","no","legacy","legacy","legacy","0","uniform","1","undefined","undefined","undefined","1","l","0","0","0","29","0","0","29","29","0","0","0","29","29","0","29","Fri Apr 27 13:03:26 2018","#000000","high","8","The main experiment item","yes","","experiment.osexp","/Users/tom/github/sft-fraction/procedure","no","mono","no","24","no","white","no","yes","800","legacy","29","29","0","/Users/tom/github/sft-fraction/results/data/subject-5a.csv","legacy","#000000","high","8","Jazzy James","3.1.9","0","l","NA","space","space","space","l","NA","2603","NA","148901","11392","7534","2603","NA","2","legacy","1024","2","48000","-16","experiment","5","odd","present","169250","169250","NA","210691","1312","169234","211772","212289","1371","150289","161699","212289","214894","NA","211753","Fraction component detection task","29","26518","30","yes","1280"
"96.7741935484","96.7741935484","875.64516129","875.64516129","#808080","no","legacy","legacy","legacy","0","uniform","1","undefined","undefined","undefined","1","a","0","0","0","30","0","0","30","30","0","0","0","30","30","0","30","Fri Apr 27 13:03:26 2018","#757575","low","2","The main experiment item","yes","","experiment.osexp","/Users/tom/github/sft-fraction/procedure","no","mono","no","24","no","white","no","yes","800","legacy","30","30","0","/Users/tom/github/sft-fraction/results/data/subject-5a.csv","legacy","#000000","high","2","Jazzy James","3.1.9","0","a","NA","space","space","space","a","NA","627","NA","148901","11392","7534","627","NA","2","legacy","1024","2","48000","-16","experiment","5","odd","absent","169250","169250","NA","210691","1312","169234","214983","215504","1371","150289","161699","215504","216133","NA","214963","Fraction component detection task","30","27145","31","yes","1280"
"96.875","96.875","866.875","866.875","#808080","no","legacy","legacy","legacy","0","uniform","1","undefined","undefined","undefined","1","a","0","0","0","31","0","0","31","31","0","0","0","31","31","0","31","Fri Apr 27 13:03:26 2018","#757575","low","4","The main experiment item","yes","","experiment.osexp","/Users/tom/github/sft-fraction/procedure","no","mono","no","24","no","white","no","yes","800","legacy","31","31","0","/Users/tom/github/sft-fraction/results/data/subject-5a.csv","legacy","#757575","low","4","Jazzy James","3.1.9","0","a","NA","space","space","space","a","NA","595","NA","148901","11392","7534","595","NA","2","legacy","1024","2","48000","-16","experiment","5","odd","absent","169250","169250","NA","210691","1312","169234","216219","216737","1371","150289","161699","216737","217334","NA","216199","Fraction component detection task","31","27740","32","yes","1280"
"96.9696969697","96.9696969697","859.060606061","859.060606061","#808080","no","legacy","legacy","legacy","0","uniform","1","undefined","undefined","undefined","1","a","0","0","0","32","0","0","32","32","0","0","0","32","32","0","32","Fri Apr 27 13:03:26 2018","#000000","high","4","The main experiment item","yes","","experiment.osexp","/Users/tom/github/sft-fraction/procedure","no","mono","no","24","no","white","no","yes","800","legacy","32","32","0","/Users/tom/github/sft-fraction/results/data/subject-5a.csv","legacy","#000000","high","3","Jazzy James","3.1.9","0","a","NA","space","space","space","a","NA","609","NA","148901","11392","7534","609","NA","2","legacy","1024","2","48000","-16","experiment","5","odd","absent","169250","169250","NA","210691","1312","169234","217421","217938","1371","150289","161699","217939","218550","NA","217401","Fraction component detection task","32","28349","33","yes","1280"
"97.0588235294","97.0588235294","852.705882353","852.705882353","#808080","no","legacy","legacy","legacy","0","uniform","1","undefined","undefined","undefined","1","a","0","0","0","33","0","0","33","33","0","0","0","33","33","0","33","Fri Apr 27 13:03:26 2018","#757575","low","2","The main experiment item","yes","","experiment.osexp","/Users/tom/github/sft-fraction/procedure","no","mono","no","24","no","white","no","yes","800","legacy","33","33","0","/Users/tom/github/sft-fraction/results/data/subject-5a.csv","legacy","#757575","low","3","Jazzy James","3.1.9","0","a","NA","space","space","space","a","NA","643","NA","148901","11392","7534","643","NA","2","legacy","1024","2","48000","-16","experiment","5","odd","absent","169250","169250","NA","210691","1312","169234","218634","219153","1371","150289","161699","219153","219798","NA","218614","Fraction component detection task","33","28992","34","yes","1280"
"97.1428571429","97.1428571429","845.657142857","845.657142857","#808080","no","legacy","legacy","legacy","0","uniform","1","undefined","undefined","undefined","1","l","0","0","0","34","0","0","34","34","0","0","0","34","34","0","34","Fri Apr 27 13:03:26 2018","#757575","low","6","The main experiment item","yes","","experiment.osexp","/Users/tom/github/sft-fraction/procedure","no","mono","no","24","no","white","no","yes","800","legacy","34","34","0","/Users/tom/github/sft-fraction/results/data/subject-5a.csv","legacy","#000000","high","4","Jazzy James","3.1.9","0","l","NA","space","space","space","l","NA","606","NA","148901","11392","7534","606","NA","2","legacy","1024","2","48000","-16","experiment","5","odd","present","169250","169250","NA","210691","1312","169234","219880","220397","1371","150289","161699","220397","221005","NA","219861","Fraction component detection task","34","29598","35","yes","1280"
"97.2222222222","97.2222222222","839.444444444","839.444444444","#808080","no","legacy","legacy","legacy","0","uniform","1","undefined","undefined","undefined","1","l","0","0","0","35","0","0","35","35","0","0","0","35","35","0","35","Fri Apr 27 13:03:26 2018","#000000","high","6","The main experiment item","yes","","experiment.osexp","/Users/tom/github/sft-fraction/procedure","no","mono","no","24","no","white","no","yes","800","legacy","35","35","0","/Users/tom/github/sft-fraction/results/data/subject-5a.csv","legacy","#000000","high","6","Jazzy James","3.1.9","0","l","NA","space","space","space","l","NA","622","NA","148901","11392","7534","622","NA","2","legacy","1024","2","48000","-16","experiment","5","odd","present","169250","169250","NA","210691","1312","169234","221096","221613","1371","150289","161699","221613","222237","NA","221077","Fraction component detection task","35","30220","36","yes","1280"
"97.2972972973","97.2972972973","830.756756757","830.756756757","#808080","no","legacy","legacy","legacy","0","uniform","1","undefined","undefined","undefined","1","l","0","0","0","36","0","0","36","36","0","0","0","36","36","0","36","Fri Apr 27 13:03:26 2018","#757575","low","2","The main experiment item","yes","","experiment.osexp","/Users/tom/github/sft-fraction/procedure","no","mono","no","24","no","white","no","yes","800","legacy","36","36","0","/Users/tom/github/sft-fraction/results/data/subject-5a.csv","legacy","#000000","high","8","Jazzy James","3.1.9","0","l","NA","space","space","space","l","NA","518","NA","148901","11392","7534","518","NA","2","legacy","1024","2","48000","-16","experiment","5","odd","present","169250","169250","NA","210691","1312","169234","222323","222839","1371","150289","161699","222839","223358","NA","222303","Fraction component detection task","36","30738","37","yes","1280"
"97.3684210526","97.3684210526","832.447368421","832.447368421","#808080","no","legacy","legacy","legacy","0","uniform","1","undefined","undefined","undefined","1","l","0","0","0","37","0","0","37","37","0","0","0","37","37","0","37","Fri Apr 27 13:03:26 2018","#000000","high","8","The main experiment item","yes","","experiment.osexp","/Users/tom/github/sft-fraction/procedure","no","mono","no","24","no","white","no","yes","800","legacy","37","37","0","/Users/tom/github/sft-fraction/results/data/subject-5a.csv","legacy","#757575","low","7","Jazzy James","3.1.9","0","l","NA","space","space","space","l","NA","895","NA","148901","11392","7534","895","NA","2","legacy","1024","2","48000","-16","experiment","5","odd","present","169250","169250","NA","210691","1312","169234","223441","223957","1371","150289","161699","223958","224855","NA","223424","Fraction component detection task","37","31633","38","yes","1280"
"97.4358974359","97.4358974359","825.333333333","825.333333333","#808080","no","legacy","legacy","legacy","0","uniform","1","undefined","undefined","undefined","1","a","0","0","0","38","0","0","38","38","0","0","0","38","38","0","38","Fri Apr 27 13:03:26 2018","#000000","high","3","The main experiment item","yes","","experiment.osexp","/Users/tom/github/sft-fraction/procedure","no","mono","no","24","no","white","no","yes","800","legacy","38","38","0","/Users/tom/github/sft-fraction/results/data/subject-5a.csv","legacy","#000000","high","2","Jazzy James","3.1.9","0","a","NA","space","space","space","a","NA","555","NA","148901","11392","7534","555","NA","2","legacy","1024","2","48000","-16","experiment","5","odd","absent","169250","169250","NA","210691","1312","169234","224939","225457","1371","150289","161699","225457","226015","NA","224923","Fraction component detection task","38","32188","39","yes","1280"
"97.5","97.5","821.075","821.075","#808080","no","legacy","legacy","legacy","0","uniform","1","undefined","undefined","undefined","1","a","0","0","0","39","0","0","39","39","0","0","0","39","39","0","39","Fri Apr 27 13:03:26 2018","#757575","low","4","The main experiment item","yes","","experiment.osexp","/Users/tom/github/sft-fraction/procedure","no","mono","no","24","no","white","no","yes","800","legacy","39","39","0","/Users/tom/github/sft-fraction/results/data/subject-5a.csv","legacy","#757575","low","2","Jazzy James","3.1.9","0","a","NA","space","space","space","a","NA","655","NA","148901","11392","7534","655","NA","2","legacy","1024","2","48000","-16","experiment","5","odd","absent","169250","169250","NA","210691","1312","169234","226096","226613","1371","150289","161699","226613","227271","NA","226080","Fraction component detection task","39","32843","40","yes","1280"
"97.5609756098","97.5609756098","820.829268293","820.829268293","#808080","no","legacy","legacy","legacy","0","uniform","1","undefined","undefined","undefined","1","l","0","0","0","40","0","0","40","40","0","0","0","40","40","0","40","Fri Apr 27 13:03:26 2018","#000000","high","4","The main experiment item","yes","","experiment.osexp","/Users/tom/github/sft-fraction/procedure","no","mono","no","24","no","white","no","yes","800","legacy","40","40","0","/Users/tom/github/sft-fraction/results/data/subject-5a.csv","legacy","#757575","low","8","Jazzy James","3.1.9","0","l","NA","space","space","space","l","NA","811","NA","148901","11392","7534","811","NA","2","legacy","1024","2","48000","-16","experiment","5","odd","present","169250","169250","NA","210691","1312","169234","227357","227874","1371","150289","161699","227874","228687","NA","227336","Fraction component detection task","40","33654","41","yes","1280"
"97.619047619","97.619047619","819.761904762","819.761904762","#808080","no","legacy","legacy","legacy","0","uniform","1","undefined","undefined","undefined","1","a","0","0","0","41","0","0","41","41","0","0","0","41","41","0","41","Fri Apr 27 13:03:26 2018","#000000","high","3","The main experiment item","yes","","experiment.osexp","/Users/tom/github/sft-fraction/procedure","no","mono","no","24","no","white","no","yes","800","legacy","41","41","0","/Users/tom/github/sft-fraction/results/data/subject-5a.csv","legacy","#757575","low","4","Jazzy James","3.1.9","0","a","NA","space","space","space","a","NA","776","NA","148901","11392","7534","776","NA","2","legacy","1024","2","48000","-16","experiment","5","odd","absent","169250","169250","NA","210691","1312","169234","228775","229291","1371","150289","161699","229292","230070","NA","228754","Fraction component detection task","41","34430","42","yes","1280"
"97.6744186047","97.6744186047","812.302325581","812.302325581","#808080","no","legacy","legacy","legacy","0","uniform","1","undefined","undefined","undefined","1","a","0","0","0","42","0","0","42","42","0","0","0","42","42","0","42","Fri Apr 27 13:03:26 2018","#757575","low","2","The main experiment item","yes","","experiment.osexp","/Users/tom/github/sft-fraction/procedure","no","mono","no","24","no","white","no","yes","800","legacy","42","42","0","/Users/tom/github/sft-fraction/results/data/subject-5a.csv","legacy","#000000","high","4","Jazzy James","3.1.9","0","a","NA","space","space","space","a","NA","499","NA","148901","11392","7534","499","NA","2","legacy","1024","2","48000","-16","experiment","5","odd","absent","169250","169250","NA","210691","1312","169234","230155","230673","1371","150289","161699","230673","231175","NA","230138","Fraction component detection task","42","34929","43","yes","1280"
"97.7272727273","97.7272727273","808.659090909","808.659090909","#808080","no","legacy","legacy","legacy","0","uniform","1","undefined","undefined","undefined","1","l","0","0","0","43","0","0","43","43","0","0","0","43","43","0","43","Fri Apr 27 13:03:26 2018","#757575","low","6","The main experiment item","yes","","experiment.osexp","/Users/tom/github/sft-fraction/procedure","no","mono","no","24","no","white","no","yes","800","legacy","43","43","0","/Users/tom/github/sft-fraction/results/data/subject-5a.csv","legacy","#757575","low","3","Jazzy James","3.1.9","0","l","NA","space","space","space","l","NA","652","NA","148901","11392","7534","652","NA","2","legacy","1024","2","48000","-16","experiment","5","odd","present","169250","169250","NA","210691","1312","169234","231258","231777","1371","150289","161699","231777","232431","NA","231242","Fraction component detection task","43","35581","44","yes","1280"
"97.7777777778","97.7777777778","809.622222222","809.622222222","#808080","no","legacy","legacy","legacy","0","uniform","1","undefined","undefined","undefined","1","l","0","0","0","44","0","0","44","44","0","0","0","44","44","0","44","Fri Apr 27 13:03:26 2018","#000000","high","6","The main experiment item","yes","","experiment.osexp","/Users/tom/github/sft-fraction/procedure","no","mono","no","24","no","white","no","yes","800","legacy","44","44","0","/Users/tom/github/sft-fraction/results/data/subject-5a.csv","legacy","#000000","high","2","Jazzy James","3.1.9","0","l","NA","space","space","space","l","NA","852","NA","148901","11392","7534","852","NA","2","legacy","1024","2","48000","-16","experiment","5","odd","present","169250","169250","NA","210691","1312","169234","232515","233033","1371","150289","161699","233033","233887","NA","232497","Fraction component detection task","44","36433","45","yes","1280"
"97.8260869565","97.8260869565","804.97826087","804.97826087","#808080","no","legacy","legacy","legacy","0","uniform","1","undefined","undefined","undefined","1","l","0","0","0","45","0","0","45","45","0","0","0","45","45","0","45","Fri Apr 27 13:03:26 2018","#757575","low","8","The main experiment item","yes","","experiment.osexp","/Users/tom/github/sft-fraction/procedure","no","mono","no","24","no","white","no","yes","800","legacy","45","45","0","/Users/tom/github/sft-fraction/results/data/subject-5a.csv","legacy","#000000","high","8","Jazzy James","3.1.9","0","l","NA","space","space","space","l","NA","596","NA","148901","11392","7534","596","NA","2","legacy","1024","2","48000","-16","experiment","5","odd","present","169250","169250","NA","210691","1312","169234","233971","234487","1371","150289","161699","234488","235086","NA","233954","Fraction component detection task","45","37029","46","yes","1280"
"97.8723404255","97.8723404255","800.021276596","800.021276596","#808080","no","legacy","legacy","legacy","0","uniform","1","undefined","undefined","undefined","1","l","0","0","0","46","0","0","46","46","0","0","0","46","46","0","46","Fri Apr 27 13:03:26 2018","#757575","low","7","The main experiment item","yes","","experiment.osexp","/Users/tom/github/sft-fraction/procedure","no","mono","no","24","no","white","no","yes","800","legacy","46","46","0","/Users/tom/github/sft-fraction/results/data/subject-5a.csv","legacy","#000000","high","8","Jazzy James","3.1.9","0","l","NA","space","space","space","l","NA","572","NA","148901","11392","7534","572","NA","2","legacy","1024","2","48000","-16","experiment","5","odd","present","169250","169250","NA","210691","1312","169234","235173","235696","1371","150289","161699","235696","236270","NA","235152","Fraction component detection task","46","37601","47","yes","1280"
"97.9166666667","97.9166666667","794.958333333","794.958333333","#808080","no","legacy","legacy","legacy","0","uniform","1","undefined","undefined","undefined","1","a","0","0","0","47","0","0","47","47","0","0","0","47","47","0","47","Fri Apr 27 13:03:26 2018","#757575","low","3","The main experiment item","yes","","experiment.osexp","/Users/tom/github/sft-fraction/procedure","no","mono","no","24","no","white","no","yes","800","legacy","47","47","0","/Users/tom/github/sft-fraction/results/data/subject-5a.csv","legacy","#757575","low","2","Jazzy James","3.1.9","0","a","NA","space","space","space","a","NA","557","NA","148901","11392","7534","557","NA","2","legacy","1024","2","48000","-16","experiment","5","odd","absent","169250","169250","NA","210691","1312","169234","236355","236872","1371","150289","161699","236872","237431","NA","236340","Fraction component detection task","47","38158","48","yes","1280"
"97.9591836735","97.9591836735","789.387755102","789.387755102","#808080","no","legacy","legacy","legacy","0","uniform","1","undefined","undefined","undefined","1","a","0","0","0","48","0","0","48","48","0","0","0","48","48","0","48","Fri Apr 27 13:03:26 2018","#000000","high","2","The main experiment item","yes","","experiment.osexp","/Users/tom/github/sft-fraction/procedure","no","mono","no","24","no","white","no","yes","800","legacy","48","48","0","/Users/tom/github/sft-fraction/results/data/subject-5a.csv","legacy","#757575","low","2","Jazzy James","3.1.9","0","a","NA","space","space","space","a","NA","522","NA","148901","11392","7534","522","NA","2","legacy","1024","2","48000","-16","experiment","5","odd","absent","169250","169250","NA","210691","1312","169234","237514","238035","1371","150289","161699","238035","238559","NA","237496","Fraction component detection task","48","38680","49","yes","1280"
"98","98","785.58","785.58","#808080","no","legacy","legacy","legacy","0","uniform","1","undefined","undefined","undefined","1","l","0","0","0","49","0","0","49","49","0","0","0","49","49","0","49","Fri Apr 27 13:03:26 2018","#757575","low","4","The main experiment item","yes","","experiment.osexp","/Users/tom/github/sft-fraction/procedure","no","mono","no","24","no","white","no","yes","800","legacy","49","49","0","/Users/tom/github/sft-fraction/results/data/subject-5a.csv","legacy","#757575","low","7","Jazzy James","3.1.9","0","l","NA","space","space","space","l","NA","599","NA","148901","11392","7534","599","NA","2","legacy","1024","2","48000","-16","experiment","5","odd","present","169250","169250","NA","210691","1312","169234","238649","239165","1371","150289","161699","239166","239768","NA","238632","Fraction component detection task","49","39279","50","yes","1280"
"98.0392156863","98.0392156863","784.137254902","784.137254902","#808080","no","legacy","legacy","legacy","0","uniform","1","undefined","undefined","undefined","1","l","0","0","0","50","0","0","50","50","0","0","0","50","50","0","50","Fri Apr 27 13:03:26 2018","#000000","high","8","The main experiment item","yes","","experiment.osexp","/Users/tom/github/sft-fraction/procedure","no","mono","no","24","no","white","no","yes","800","legacy","50","50","0","/Users/tom/github/sft-fraction/results/data/subject-5a.csv","legacy","#757575","low","3","Jazzy James","3.1.9","0","l","NA","space","space","space","l","NA","712","NA","148901","11392","7534","712","NA","2","legacy","1024","2","48000","-16","experiment","5","odd","present","169250","169250","NA","210691","1312","169234","239854","240372","1371","150289","161699","240372","241087","NA","239837","Fraction component detection task","50","39991","51","yes","1280"
"98.0769230769","98.0769230769","780.288461538","780.288461538","#808080","no","legacy","legacy","legacy","0","uniform","1","undefined","undefined","undefined","1","l","0","0","0","51","0","0","51","51","0","0","0","51","51","0","51","Fri Apr 27 13:03:26 2018","#757575","low","6","The main experiment item","yes","","experiment.osexp","/Users/tom/github/sft-fraction/procedure","no","mono","no","24","no","white","no","yes","800","legacy","51","51","0","/Users/tom/github/sft-fraction/results/data/subject-5a.csv","legacy","#757575","low","8","Jazzy James","3.1.9","0","l","NA","space","space","space","l","NA","584","NA","148901","11392","7534","584","NA","2","legacy","1024","2","48000","-16","experiment","5","odd","present","169250","169250","NA","210691","1312","169234","241165","241684","1371","150289","161699","241684","242271","NA","241150","Fraction component detection task","51","40575","52","yes","1280"
"98.1132075472","98.1132075472","777.339622642","777.339622642","#808080","no","legacy","legacy","legacy","0","uniform","1","undefined","undefined","undefined","1","a","0","0","0","52","0","0","52","52","0","0","0","52","52","0","52","Fri Apr 27 13:03:26 2018","#000000","high","4","The main experiment item","yes","","experiment.osexp","/Users/tom/github/sft-fraction/procedure","no","mono","no","24","no","white","no","yes","800","legacy","52","52","0","/Users/tom/github/sft-fraction/results/data/subject-5a.csv","legacy","#757575","low","2","Jazzy James","3.1.9","0","a","NA","space","space","space","a","NA","624","NA","148901","11392","7534","624","NA","2","legacy","1024","2","48000","-16","experiment","5","odd","absent","169250","169250","NA","210691","1312","169234","242352","242870","1371","150289","161699","242870","243496","NA","242337","Fraction component detection task","52","41199","53","yes","1280"
"98.1481481481","98.1481481481","773.611111111","773.611111111","#808080","no","legacy","legacy","legacy","0","uniform","1","undefined","undefined","undefined","1","a","0","0","0","53","0","0","53","53","0","0","0","53","53","0","53","Fri Apr 27 13:03:26 2018","#757575","low","3","The main experiment item","yes","","experiment.osexp","/Users/tom/github/sft-fraction/procedure","no","mono","no","24","no","white","no","yes","800","legacy","53","53","0","/Users/tom/github/sft-fraction/results/data/subject-5a.csv","legacy","#757575","low","2","Jazzy James","3.1.9","0","a","NA","space","space","space","a","NA","576","NA","148901","11392","7534","576","NA","2","legacy","1024","2","48000","-16","experiment","5","odd","absent","169250","169250","NA","210691","1312","169234","243577","244094","1371","150289","161699","244094","244672","NA","243561","Fraction component detection task","53","41775","54","yes","1280"
"98.1818181818","98.1818181818","769.781818182","769.781818182","#808080","no","legacy","legacy","legacy","0","uniform","1","undefined","undefined","undefined","1","l","0","0","0","54","0","0","54","54","0","0","0","54","54","0","54","Fri Apr 27 13:03:26 2018","#000000","high","6","The main experiment item","yes","","experiment.osexp","/Users/tom/github/sft-fraction/procedure","no","mono","no","24","no","white","no","yes","800","legacy","54","54","0","/Users/tom/github/sft-fraction/results/data/subject-5a.csv","legacy","#757575","low","8","Jazzy James","3.1.9","0","l","NA","space","space","space","l","NA","563","NA","148901","11392","7534","563","NA","2","legacy","1024","2","48000","-16","experiment","5","odd","present","169250","169250","NA","210691","1312","169234","244759","245275","1371","150289","161699","245275","245841","NA","244738","Fraction component detection task","54","42338","55","yes","1280"
"98.2142857143","98.2142857143","768.232142857","768.232142857","#808080","no","legacy","legacy","legacy","0","uniform","1","undefined","undefined","undefined","1","l","0","0","0","55","0","0","55","55","0","0","0","55","55","0","55","Fri Apr 27 13:03:26 2018","#757575","low","6","The main experiment item","yes","","experiment.osexp","/Users/tom/github/sft-fraction/procedure","no","mono","no","24","no","white","no","yes","800","legacy","55","55","0","/Users/tom/github/sft-fraction/results/data/subject-5a.csv","legacy","#000000","high","2","Jazzy James","3.1.9","0","l","NA","space","space","space","l","NA","683","NA","148901","11392","7534","683","NA","2","legacy","1024","2","48000","-16","experiment","5","odd","present","169250","169250","NA","210691","1312","169234","245925","246442","1371","150289","161699","246442","247127","NA","245908","Fraction component detection task","55","43021","56","yes","1280"
"98.2456140351","98.2456140351","765.210526316","765.210526316","#808080","no","legacy","legacy","legacy","0","uniform","1","undefined","undefined","undefined","1","l","0","0","0","56","0","0","56","56","0","0","0","56","56","0","56","Fri Apr 27 13:03:26 2018","#000000","high","6","The main experiment item","yes","","experiment.osexp","/Users/tom/github/sft-fraction/procedure","no","mono","no","24","no","white","no","yes","800","legacy","56","56","0","/Users/tom/github/sft-fraction/results/data/subject-5a.csv","legacy","#757575","low","2","Jazzy James","3.1.9","0","l","NA","space","space","space","l","NA","596","NA","148901","11392","7534","596","NA","2","legacy","1024","2","48000","-16","experiment","5","odd","present","169250","169250","NA","210691","1312","169234","247212","247729","1371","150289","161699","247730","248328","NA","247192","Fraction component detection task","56","43617","57","yes","1280"
"98.275862069","98.275862069","766.224137931","766.224137931","#808080","no","legacy","legacy","legacy","0","uniform","1","undefined","undefined","undefined","1","a","0","0","0","57","0","0","57","57","0","0","0","57","57","0","57","Fri Apr 27 13:03:26 2018","#757575","low","3","The main experiment item","yes","","experiment.osexp","/Users/tom/github/sft-fraction/procedure","no","mono","no","24","no","white","no","yes","800","legacy","57","57","0","/Users/tom/github/sft-fraction/results/data/subject-5a.csv","legacy","#757575","low","4","Jazzy James","3.1.9","0","a","NA","space","space","space","a","NA","824","NA","148901","11392","7534","824","NA","2","legacy","1024","2","48000","-16","experiment","5","odd","absent","169250","169250","NA","210691","1312","169234","248408","248925","1371","150289","161699","248926","249753","NA","248392","Fraction component detection task","57","44441","58","yes","1280"
"98.3050847458","98.3050847458","765.101694915","765.101694915","#808080","no","legacy","legacy","legacy","0","uniform","1","undefined","undefined","undefined","1","l","0","0","0","58","0","0","58","58","0","0","0","58","58","0","58","Fri Apr 27 13:03:26 2018","#000000","high","8","The main experiment item","yes","","experiment.osexp","/Users/tom/github/sft-fraction/procedure","no","mono","no","24","no","white","no","yes","800","legacy","58","58","0","/Users/tom/github/sft-fraction/results/data/subject-5a.csv","legacy","#757575","low","6","Jazzy James","3.1.9","0","l","NA","space","space","space","l","NA","700","NA","148901","11392","7534","700","NA","2","legacy","1024","2","48000","-16","experiment","5","odd","present","169250","169250","NA","210691","1312","169234","249834","250353","1371","150289","161699","250353","251055","NA","249818","Fraction component detection task","58","45141","59","yes","1280"
"98.3333333333","98.3333333333","761.1","761.1","#808080","no","legacy","legacy","legacy","0","uniform","1","undefined","undefined","undefined","1","a","0","0","0","59","0","0","59","59","0","0","0","59","59","0","59","Fri Apr 27 13:03:26 2018","#000000","high","3","The main experiment item","yes","","experiment.osexp","/Users/tom/github/sft-fraction/procedure","no","mono","no","24","no","white","no","yes","800","legacy","59","59","0","/Users/tom/github/sft-fraction/results/data/subject-5a.csv","legacy","#757575","low","3","Jazzy James","3.1.9","0","a","NA","space","space","space","a","NA","525","NA","148901","11392","7534","525","NA","2","legacy","1024","2","48000","-16","experiment","5","odd","absent","169250","169250","NA","210691","1312","169234","251134","251656","1371","150289","161699","251656","252184","NA","251118","Fraction component detection task","59","45666","60","yes","1280"
"98.3606557377","98.3606557377","757.409836066","757.409836066","#808080","no","legacy","legacy","legacy","0","uniform","1","undefined","undefined","undefined","1","a","0","0","0","60","0","0","60","60","0","0","0","60","60","0","60","Fri Apr 27 13:03:26 2018","#000000","high","3","The main experiment item","yes","","experiment.osexp","/Users/tom/github/sft-fraction/procedure","no","mono","no","24","no","white","no","yes","800","legacy","60","60","0","/Users/tom/github/sft-fraction/results/data/subject-5a.csv","legacy","#000000","high","4","Jazzy James","3.1.9","0","a","NA","space","space","space","a","NA","536","NA","148901","11392","7534","536","NA","2","legacy","1024","2","48000","-16","experiment","5","odd","absent","169250","169250","NA","210691","1312","169234","252265","252782","1371","150289","161699","252782","253320","NA","252250","Fraction component detection task","60","46202","61","yes","1280"
"98.3870967742","98.3870967742","755.290322581","755.290322581","#808080","no","legacy","legacy","legacy","0","uniform","1","undefined","undefined","undefined","1","a","0","0","0","61","0","0","61","61","0","0","0","61","61","0","61","Fri Apr 27 13:03:26 2018","#757575","low","4","The main experiment item","yes","","experiment.osexp","/Users/tom/github/sft-fraction/procedure","no","mono","no","24","no","white","no","yes","800","legacy","61","61","0","/Users/tom/github/sft-fraction/results/data/subject-5a.csv","legacy","#757575","low","2","Jazzy James","3.1.9","0","a","NA","space","space","space","a","NA","626","NA","148901","11392","7534","626","NA","2","legacy","1024","2","48000","-16","experiment","5","odd","absent","169250","169250","NA","210691","1312","169234","253406","253923","1371","150289","161699","253924","254552","NA","253385","Fraction component detection task","61","46828","62","yes","1280"
"98.4126984127","98.4126984127","751.142857143","751.142857143","#808080","no","legacy","legacy","legacy","0","uniform","1","undefined","undefined","undefined","1","a","0","0","0","62","0","0","62","62","0","0","0","62","62","0","62","Fri Apr 27 13:03:26 2018","#000000","high","3","The main experiment item","yes","","experiment.osexp","/Users/tom/github/sft-fraction/procedure","no","mono","no","24","no","white","no","yes","800","legacy","62","62","0","/Users/tom/github/sft-fraction/results/data/subject-5a.csv","legacy","#000000","high","4","Jazzy James","3.1.9","0","a","NA","space","space","space","a","NA","494","NA","148901","11392","7534","494","NA","2","legacy","1024","2","48000","-16","experiment","5","odd","absent","169250","169250","NA","210691","1312","169234","254634","255152","1371","150289","161699","255152","255649","NA","254618","Fraction component detection task","62","47322","63","yes","1280"
"98.4375","98.4375","746.34375","746.34375","#808080","no","legacy","legacy","legacy","0","uniform","1","undefined","undefined","undefined","1","a","0","0","0","63","0","0","63","63","0","0","0","63","63","0","63","Fri Apr 27 13:03:26 2018","#000000","high","2","The main experiment item","yes","","experiment.osexp","/Users/tom/github/sft-fraction/procedure","no","mono","no","24","no","white","no","yes","800","legacy","63","63","0","/Users/tom/github/sft-fraction/results/data/subject-5a.csv","legacy","#757575","low","3","Jazzy James","3.1.9","0","a","NA","space","space","space","a","NA","444","NA","148901","11392","7534","444","NA","2","legacy","1024","2","48000","-16","experiment","5","odd","absent","169250","169250","NA","210691","1312","169234","255734","256250","1371","150289","161699","256250","256697","NA","255714","Fraction component detection task","63","47766","64","yes","1280"
"98.4615384615","98.4615384615","743.476923077","743.476923077","#808080","no","legacy","legacy","legacy","0","uniform","1","undefined","undefined","undefined","1","a","0","0","0","64","0","0","64","64","0","0","0","64","64","0","64","Fri Apr 27 13:03:26 2018","#000000","high","4","The main experiment item","yes","","experiment.osexp","/Users/tom/github/sft-fraction/procedure","no","mono","no","24","no","white","no","yes","800","legacy","64","64","0","/Users/tom/github/sft-fraction/results/data/subject-5a.csv","legacy","#757575","low","4","Jazzy James","3.1.9","0","a","NA","space","space","space","a","NA","560","NA","148901","11392","7534","560","NA","2","legacy","1024","2","48000","-16","experiment","5","odd","absent","169250","169250","NA","210691","1312","169234","256786","257302","1371","150289","161699","257302","257865","NA","256765","Fraction component detection task","64","48326","65","yes","1280"
"98.4848484848","98.4848484848","741.575757576","741.575757576","#808080","no","legacy","legacy","legacy","0","uniform","1","undefined","undefined","undefined","1","l","0","0","0","65","0","0","65","65","0","0","0","65","65","0","65","Fri Apr 27 13:03:26 2018","#757575","low","8","The main experiment item","yes","","experiment.osexp","/Users/tom/github/sft-fraction/procedure","no","mono","no","24","no","white","no","yes","800","legacy","65","65","0","/Users/tom/github/sft-fraction/results/data/subject-5a.csv","legacy","#757575","low","7","Jazzy James","3.1.9","0","l","NA","space","space","space","l","NA","618","NA","148901","11392","7534","618","NA","2","legacy","1024","2","48000","-16","experiment","5","odd","present","169250","169250","NA","210691","1312","169234","257950","258467","1371","150289","161699","258467","259088","NA","257932","Fraction component detection task","65","48944","66","yes","1280"
"98.5074626866","98.5074626866","743.671641791","743.671641791","#808080","no","legacy","legacy","legacy","0","uniform","1","undefined","undefined","undefined","1","l","0","0","0","66","0","0","66","66","0","0","0","66","66","0","66","Fri Apr 27 13:03:26 2018","#757575","low","3","The main experiment item","yes","","experiment.osexp","/Users/tom/github/sft-fraction/procedure","no","mono","no","24","no","white","no","yes","800","legacy","66","66","0","/Users/tom/github/sft-fraction/results/data/subject-5a.csv","legacy","#000000","high","6","Jazzy James","3.1.9","0","l","NA","space","space","space","l","NA","882","NA","148901","11392","7534","882","NA","2","legacy","1024","2","48000","-16","experiment","5","odd","present","169250","169250","NA","210691","1312","169234","259175","259691","1371","150289","161699","259692","260577","NA","259155","Fraction component detection task","66","49826","67","yes","1280"
"98.5294117647","98.5294117647","742.75","742.75","#808080","no","legacy","legacy","legacy","0","uniform","1","undefined","undefined","undefined","1","l","0","0","0","67","0","0","67","67","0","0","0","67","67","0","67","Fri Apr 27 13:03:26 2018","#000000","high","4","The main experiment item","yes","","experiment.osexp","/Users/tom/github/sft-fraction/procedure","no","mono","no","24","no","white","no","yes","800","legacy","67","67","0","/Users/tom/github/sft-fraction/results/data/subject-5a.csv","legacy","#757575","low","7","Jazzy James","3.1.9","0","l","NA","space","space","space","l","NA","681","NA","148901","11392","7534","681","NA","2","legacy","1024","2","48000","-16","experiment","5","odd","present","169250","169250","NA","210691","1312","169234","260662","261181","1371","150289","161699","261182","261865","NA","260644","Fraction component detection task","67","50507","68","yes","1280"
"98.5507246377","98.5507246377","739.231884058","739.231884058","#808080","no","legacy","legacy","legacy","0","uniform","1","undefined","undefined","undefined","1","a","0","0","0","68","0","0","68","68","0","0","0","68","68","0","68","Fri Apr 27 13:03:26 2018","#000000","high","3","The main experiment item","yes","","experiment.osexp","/Users/tom/github/sft-fraction/procedure","no","mono","no","24","no","white","no","yes","800","legacy","68","68","0","/Users/tom/github/sft-fraction/results/data/subject-5a.csv","legacy","#000000","high","2","Jazzy James","3.1.9","0","a","NA","space","space","space","a","NA","500","NA","148901","11392","7534","500","NA","2","legacy","1024","2","48000","-16","experiment","5","odd","absent","169250","169250","NA","210691","1312","169234","261949","262466","1371","150289","161699","262467","262969","NA","261929","Fraction component detection task","68","51007","69","yes","1280"
"98.5714285714","98.5714285714","737.342857143","737.342857143","#808080","no","legacy","legacy","legacy","0","uniform","1","undefined","undefined","undefined","1","l","0","0","0","69","0","0","69","69","0","0","0","69","69","0","69","Fri Apr 27 13:03:26 2018","#757575","low","3","The main experiment item","yes","","experiment.osexp","/Users/tom/github/sft-fraction/procedure","no","mono","no","24","no","white","no","yes","800","legacy","69","69","0","/Users/tom/github/sft-fraction/results/data/subject-5a.csv","legacy","#000000","high","8","Jazzy James","3.1.9","0","l","NA","space","space","space","l","NA","607","NA","148901","11392","7534","607","NA","2","legacy","1024","2","48000","-16","experiment","5","odd","present","169250","169250","NA","210691","1312","169234","263050","263567","1371","150289","161699","263567","264176","NA","263034","Fraction component detection task","69","51614","70","yes","1280"
"98.5915492958","98.5915492958","734.38028169","734.38028169","#808080","no","legacy","legacy","legacy","0","uniform","1","undefined","undefined","undefined","1","a","0","0","0","70","0","0","70","70","0","0","0","70","70","0","70","Fri Apr 27 13:03:26 2018","#000000","high","2","The main experiment item","yes","","experiment.osexp","/Users/tom/github/sft-fraction/procedure","no","mono","no","24","no","white","no","yes","800","legacy","70","70","0","/Users/tom/github/sft-fraction/results/data/subject-5a.csv","legacy","#000000","high","4","Jazzy James","3.1.9","0","a","NA","space","space","space","a","NA","527","NA","148901","11392","7534","527","NA","2","legacy","1024","2","48000","-16","experiment","5","odd","absent","169250","169250","NA","210691","1312","169234","264257","264775","1371","150289","161699","264775","265305","NA","264242","Fraction component detection task","70","52141","71","yes","1280"
"98.6111111111","98.6111111111","736.138888889","736.138888889","#808080","no","legacy","legacy","legacy","0","uniform","1","undefined","undefined","undefined","1","l","0","0","0","71","0","0","71","71","0","0","0","71","71","0","71","Fri Apr 27 13:03:26 2018","#000000","high","8","The main experiment item","yes","","experiment.osexp","/Users/tom/github/sft-fraction/procedure","no","mono","no","24","no","white","no","yes","800","legacy","71","71","0","/Users/tom/github/sft-fraction/results/data/subject-5a.csv","legacy","#757575","low","4","Jazzy James","3.1.9","0","l","NA","space","space","space","l","NA","861","NA","148901","11392","7534","861","NA","2","legacy","1024","2","48000","-16","experiment","5","odd","present","169250","169250","NA","210691","1312","169234","265388","265906","1371","150289","161699","265906","266769","NA","265372","Fraction component detection task","71","53002","72","yes","1280"
"98.6301369863","98.6301369863","733.301369863","733.301369863","#808080","no","legacy","legacy","legacy","0","uniform","1","undefined","undefined","undefined","1","a","0","0","0","72","0","0","72","72","0","0","0","72","72","0","72","Fri Apr 27 13:03:26 2018","#000000","high","3","The main experiment item","yes","","experiment.osexp","/Users/tom/github/sft-fraction/procedure","no","mono","no","24","no","white","no","yes","800","legacy","72","72","0","/Users/tom/github/sft-fraction/results/data/subject-5a.csv","legacy","#000000","high","3","Jazzy James","3.1.9","0","a","NA","space","space","space","a","NA","529","NA","148901","11392","7534","529","NA","2","legacy","1024","2","48000","-16","experiment","5","odd","absent","169250","169250","NA","210691","1312","169234","266849","267366","1371","150289","161699","267366","267898","NA","266833","Fraction component detection task","72","53531","73","yes","1280"
"98.6486486486","98.6486486486","730.689189189","730.689189189","#808080","no","legacy","legacy","legacy","0","uniform","1","undefined","undefined","undefined","1","a","0","0","0","73","0","0","73","73","0","0","0","73","73","0","73","Fri Apr 27 13:03:26 2018","#000000","high","2","The main experiment item","yes","","experiment.osexp","/Users/tom/github/sft-fraction/procedure","no","mono","no","24","no","white","no","yes","800","legacy","73","73","0","/Users/tom/github/sft-fraction/results/data/subject-5a.csv","legacy","#757575","low","4","Jazzy James","3.1.9","0","a","NA","space","space","space","a","NA","540","NA","148901","11392","7534","540","NA","2","legacy","1024","2","48000","-16","experiment","5","odd","absent","169250","169250","NA","210691","1312","169234","267987","268506","1371","150289","161699","268506","269048","NA","267966","Fraction component detection task","73","54071","74","yes","1280"
"98.6666666667","98.6666666667","726.56","726.56","#808080","no","legacy","legacy","legacy","0","uniform","1","undefined","undefined","undefined","1","l","0","0","0","74","0","0","74","74","0","0","0","74","74","0","74","Fri Apr 27 13:03:26 2018","#757575","low","6","The main experiment item","yes","","experiment.osexp","/Users/tom/github/sft-fraction/procedure","no","mono","no","24","no","white","no","yes","800","legacy","74","74","0","/Users/tom/github/sft-fraction/results/data/subject-5a.csv","legacy","#000000","high","7","Jazzy James","3.1.9","0","l","NA","space","space","space","l","NA","421","NA","148901","11392","7534","421","NA","2","legacy","1024","2","48000","-16","experiment","5","odd","present","169250","169250","NA","210691","1312","169234","269135","269657","1371","150289","161699","269657","270081","NA","269117","Fraction component detection task","74","54492","75","yes","1280"
"98.6842105263","98.6842105263","723.921052632","723.921052632","#808080","no","legacy","legacy","legacy","0","uniform","1","undefined","undefined","undefined","1","l","0","0","0","75","0","0","75","75","0","0","0","75","75","0","75","Fri Apr 27 13:03:26 2018","#000000","high","3","The main experiment item","yes","","experiment.osexp","/Users/tom/github/sft-fraction/procedure","no","mono","no","24","no","white","no","yes","800","legacy","75","75","0","/Users/tom/github/sft-fraction/results/data/subject-5a.csv","legacy","#000000","high","6","Jazzy James","3.1.9","0","l","NA","space","space","space","l","NA","526","NA","148901","11392","7534","526","NA","2","legacy","1024","2","48000","-16","experiment","5","odd","present","169250","169250","NA","210691","1312","169234","270163","270680","1371","150289","161699","270680","271209","NA","270148","Fraction component detection task","75","55018","76","yes","1280"
"98.7012987013","98.7012987013","721.818181818","721.818181818","#808080","no","legacy","legacy","legacy","0","uniform","1","undefined","undefined","undefined","1","a","0","0","0","76","0","0","76","76","0","0","0","76","76","0","76","Fri Apr 27 13:03:26 2018","#757575","low","4","The main experiment item","yes","","experiment.osexp","/Users/tom/github/sft-fraction/procedure","no","mono","no","24","no","white","no","yes","800","legacy","76","76","0","/Users/tom/github/sft-fraction/results/data/subject-5a.csv","legacy","#000000","high","4","Jazzy James","3.1.9","0","a","NA","space","space","space","a","NA","562","NA","148901","11392","7534","562","NA","2","legacy","1024","2","48000","-16","experiment","5","odd","absent","169250","169250","NA","210691","1312","169234","271288","271805","1371","150289","161699","271805","272370","NA","271273","Fraction component detection task","76","55580","77","yes","1280"
"98.7179487179","98.7179487179","719.346153846","719.346153846","#808080","no","legacy","legacy","legacy","0","uniform","1","undefined","undefined","undefined","1","a","0","0","0","77","0","0","77","77","0","0","0","77","77","0","77","Fri Apr 27 13:03:26 2018","#757575","low","2","The main experiment item","yes","","experiment.osexp","/Users/tom/github/sft-fraction/procedure","no","mono","no","24","no","white","no","yes","800","legacy","77","77","0","/Users/tom/github/sft-fraction/results/data/subject-5a.csv","legacy","#757575","low","2","Jazzy James","3.1.9","0","a","NA","space","space","space","a","NA","529","NA","148901","11392","7534","529","NA","2","legacy","1024","2","48000","-16","experiment","5","odd","absent","169250","169250","NA","210691","1312","169234","272455","272974","1371","150289","161699","272974","273506","NA","272438","Fraction component detection task","77","56109","78","yes","1280"
"98.7341772152","98.7341772152","718.708860759","718.708860759","#808080","no","legacy","legacy","legacy","0","uniform","1","undefined","undefined","undefined","1","l","0","0","0","78","0","0","78","78","0","0","0","78","78","0","78","Fri Apr 27 13:03:26 2018","#757575","low","7","The main experiment item","yes","","experiment.osexp","/Users/tom/github/sft-fraction/procedure","no","mono","no","24","no","white","no","yes","800","legacy","78","78","0","/Users/tom/github/sft-fraction/results/data/subject-5a.csv","legacy","#000000","high","2","Jazzy James","3.1.9","0","l","NA","space","space","space","l","NA","669","NA","148901","11392","7534","669","NA","2","legacy","1024","2","48000","-16","experiment","5","odd","present","169250","169250","NA","210691","1312","169234","273587","274106","1371","150289","161699","274106","274778","NA","273569","Fraction component detection task","78","56778","79","yes","1280"
"98.75","98.75","717","717","#808080","no","legacy","legacy","legacy","0","uniform","1","undefined","undefined","undefined","1","l","0","0","0","79","0","0","79","79","0","0","0","79","79","0","79","Fri Apr 27 13:03:26 2018","#757575","low","7","The main experiment item","yes","","experiment.osexp","/Users/tom/github/sft-fraction/procedure","no","mono","no","24","no","white","no","yes","800","legacy","79","79","0","/Users/tom/github/sft-fraction/results/data/subject-5a.csv","legacy","#757575","low","4","Jazzy James","3.1.9","0","l","NA","space","space","space","l","NA","582","NA","148901","11392","7534","582","NA","2","legacy","1024","2","48000","-16","experiment","5","odd","present","169250","169250","NA","210691","1312","169234","274868","275385","1371","150289","161699","275385","275970","NA","274848","Fraction component detection task","79","57360","80","yes","1280"
"98.7654320988","98.7654320988","715.049382716","715.049382716","#808080","no","legacy","legacy","legacy","0","uniform","1","undefined","undefined","undefined","1","l","0","0","0","80","0","0","80","80","0","0","0","80","80","0","80","Fri Apr 27 13:03:26 2018","#757575","low","4","The main experiment item","yes","","experiment.osexp","/Users/tom/github/sft-fraction/procedure","no","mono","no","24","no","white","no","yes","800","legacy","80","80","0","/Users/tom/github/sft-fraction/results/data/subject-5a.csv","legacy","#000000","high","8","Jazzy James","3.1.9","0","l","NA","space","space","space","l","NA","559","NA","148901","11392","7534","559","NA","2","legacy","1024","2","48000","-16","experiment","5","odd","present","169250","169250","NA","210691","1312","169234","276049","276566","1371","150289","161699","276567","277129","NA","276033","Fraction component detection task","80","57919","81","yes","1280"
"98.7804878049","98.7804878049","712.475609756","712.475609756","#808080","no","legacy","legacy","legacy","0","uniform","1","undefined","undefined","undefined","1","a","0","0","0","81","0","0","81","81","0","0","0","81","81","0","81","Fri Apr 27 13:03:26 2018","#000000","high","4","The main experiment item","yes","","experiment.osexp","/Users/tom/github/sft-fraction/procedure","no","mono","no","24","no","white","no","yes","800","legacy","81","81","0","/Users/tom/github/sft-fraction/results/data/subject-5a.csv","legacy","#757575","low","4","Jazzy James","3.1.9","0","a","NA","space","space","space","a","NA","504","NA","148901","11392","7534","504","NA","2","legacy","1024","2","48000","-16","experiment","5","odd","absent","169250","169250","NA","210691","1312","169234","277208","277725","1371","150289","161699","277726","278233","NA","277192","Fraction component detection task","81","58423","82","yes","1280"
"98.7951807229","98.7951807229","710.072289157","710.072289157","#808080","no","legacy","legacy","legacy","0","uniform","1","undefined","undefined","undefined","1","l","0","0","0","82","0","0","82","82","0","0","0","82","82","0","82","Fri Apr 27 13:03:26 2018","#000000","high","6","The main experiment item","yes","","experiment.osexp","/Users/tom/github/sft-fraction/procedure","no","mono","no","24","no","white","no","yes","800","legacy","82","82","0","/Users/tom/github/sft-fraction/results/data/subject-5a.csv","legacy","#757575","low","4","Jazzy James","3.1.9","0","l","NA","space","space","space","l","NA","513","NA","148901","11392","7534","513","NA","2","legacy","1024","2","48000","-16","experiment","5","odd","present","169250","169250","NA","210691","1312","169234","278312","278831","1371","150289","161699","278831","279346","NA","278297","Fraction component detection task","82","58936","83","yes","1280"
"98.8095238095","98.8095238095","707.333333333","707.333333333","#808080","no","legacy","legacy","legacy","0","uniform","1","undefined","undefined","undefined","1","a","0","0","0","83","0","0","83","83","0","0","0","83","83","0","83","Fri Apr 27 13:03:26 2018","#757575","low","2","The main experiment item","yes","","experiment.osexp","/Users/tom/github/sft-fraction/procedure","no","mono","no","24","no","white","no","yes","800","legacy","83","83","0","/Users/tom/github/sft-fraction/results/data/subject-5a.csv","legacy","#757575","low","4","Jazzy James","3.1.9","0","a","NA","space","space","space","a","NA","480","NA","148901","11392","7534","480","NA","2","legacy","1024","2","48000","-16","experiment","5","odd","absent","169250","169250","NA","210691","1312","169234","279427","279944","1371","150289","161699","279944","280426","NA","279412","Fraction component detection task","83","59416","84","yes","1280"
"98.8235294118","98.8235294118","705.376470588","705.376470588","#808080","no","legacy","legacy","legacy","0","uniform","1","undefined","undefined","undefined","1","l","0","0","0","84","0","0","84","84","0","0","0","84","84","0","84","Fri Apr 27 13:03:26 2018","#000000","high","6","The main experiment item","yes","","experiment.osexp","/Users/tom/github/sft-fraction/procedure","no","mono","no","24","no","white","no","yes","800","legacy","84","84","0","/Users/tom/github/sft-fraction/results/data/subject-5a.csv","legacy","#000000","high","7","Jazzy James","3.1.9","0","l","NA","space","space","space","l","NA","541","NA","148901","11392","7534","541","NA","2","legacy","1024","2","48000","-16","experiment","5","odd","present","169250","169250","NA","210691","1312","169234","280509","281027","1371","150289","161699","281027","281570","NA","280493","Fraction component detection task","84","59957","85","yes","1280"
"98.8372093023","98.8372093023","702.895348837","702.895348837","#808080","no","legacy","legacy","legacy","0","uniform","1","undefined","undefined","undefined","1","a","0","0","0","85","0","0","85","85","0","0","0","85","85","0","85","Fri Apr 27 13:03:26 2018","#000000","high","3","The main experiment item","yes","","experiment.osexp","/Users/tom/github/sft-fraction/procedure","no","mono","no","24","no","white","no","yes","800","legacy","85","85","0","/Users/tom/github/sft-fraction/results/data/subject-5a.csv","legacy","#000000","high","3","Jazzy James","3.1.9","0","a","NA","space","space","space","a","NA","492","NA","148901","11392","7534","492","NA","2","legacy","1024","2","48000","-16","experiment","5","odd","absent","169250","169250","NA","210691","1312","169234","281655","282172","1371","150289","161699","282172","282666","NA","281638","Fraction component detection task","85","60449","86","yes","1280"
"98.8505747126","98.8505747126","701.494252874","701.494252874","#808080","no","legacy","legacy","legacy","0","uniform","1","undefined","undefined","undefined","1","a","0","0","0","86","0","0","86","86","0","0","0","86","86","0","86","Fri Apr 27 13:03:26 2018","#757575","low","4","The main experiment item","yes","","experiment.osexp","/Users/tom/github/sft-fraction/procedure","no","mono","no","24","no","white","no","yes","800","legacy","86","86","0","/Users/tom/github/sft-fraction/results/data/subject-5a.csv","legacy","#000000","high","2","Jazzy James","3.1.9","0","a","NA","space","space","space","a","NA","581","NA","148901","11392","7534","581","NA","2","legacy","1024","2","48000","-16","experiment","5","odd","absent","169250","169250","NA","210691","1312","169234","282751","283267","1371","150289","161699","283267","283850","NA","282731","Fraction component detection task","86","61030","87","yes","1280"
"98.8636363636","98.8636363636","700.056818182","700.056818182","#808080","no","legacy","legacy","legacy","0","uniform","1","undefined","undefined","undefined","1","l","0","0","0","87","0","0","87","87","0","0","0","87","87","0","87","Fri Apr 27 13:03:26 2018","#000000","high","8","The main experiment item","yes","","experiment.osexp","/Users/tom/github/sft-fraction/procedure","no","mono","no","24","no","white","no","yes","800","legacy","87","87","0","/Users/tom/github/sft-fraction/results/data/subject-5a.csv","legacy","#000000","high","3","Jazzy James","3.1.9","0","l","NA","space","space","space","l","NA","575","NA","148901","11392","7534","575","NA","2","legacy","1024","2","48000","-16","experiment","5","odd","present","169250","169250","NA","210691","1312","169234","283931","284448","1371","150289","161699","284448","285025","NA","283915","Fraction component detection task","87","61605","88","yes","1280"
"98.8764044944","98.8764044944","701.966292135","701.966292135","#808080","no","legacy","legacy","legacy","0","uniform","1","undefined","undefined","undefined","1","a","0","0","0","88","0","0","88","88","0","0","0","88","88","0","88","Fri Apr 27 13:03:26 2018","#757575","low","4","The main experiment item","yes","","experiment.osexp","/Users/tom/github/sft-fraction/procedure","no","mono","no","24","no","white","no","yes","800","legacy","88","88","0","/Users/tom/github/sft-fraction/results/data/subject-5a.csv","legacy","#000000","high","2","Jazzy James","3.1.9","0","a","NA","space","space","space","a","NA","870","NA","148901","11392","7534","870","NA","2","legacy","1024","2","48000","-16","experiment","5","odd","absent","169250","169250","NA","210691","1312","169234","285115","285634","1371","150289","161699","285634","286507","NA","285095","Fraction component detection task","88","62475","89","yes","1280"
"98.8888888889","98.8888888889","700.211111111","700.211111111","#808080","no","legacy","legacy","legacy","0","uniform","1","undefined","undefined","undefined","1","l","0","0","0","89","0","0","89","89","0","0","0","89","89","0","89","Fri Apr 27 13:03:26 2018","#757575","low","6","The main experiment item","yes","","experiment.osexp","/Users/tom/github/sft-fraction/procedure","no","mono","no","24","no","white","no","yes","800","legacy","89","89","0","/Users/tom/github/sft-fraction/results/data/subject-5a.csv","legacy","#000000","high","6","Jazzy James","3.1.9","0","l","NA","space","space","space","l","NA","544","NA","148901","11392","7534","544","NA","2","legacy","1024","2","48000","-16","experiment","5","odd","present","169250","169250","NA","210691","1312","169234","286588","287104","1371","150289","161699","287104","287651","NA","286572","Fraction component detection task","89","63019","90","yes","1280"
"98.9010989011","98.9010989011","700.285714286","700.285714286","#808080","no","legacy","legacy","legacy","0","uniform","1","undefined","undefined","undefined","1","a","0","0","0","90","0","0","90","90","0","0","0","90","90","0","90","Fri Apr 27 13:03:26 2018","#000000","high","3","The main experiment item","yes","","experiment.osexp","/Users/tom/github/sft-fraction/procedure","no","mono","no","24","no","white","no","yes","800","legacy","90","90","0","/Users/tom/github/sft-fraction/results/data/subject-5a.csv","legacy","#757575","low","2","Jazzy James","3.1.9","0","a","NA","space","space","space","a","NA","707","NA","148901","11392","7534","707","NA","2","legacy","1024","2","48000","-16","experiment","5","odd","absent","169250","169250","NA","210691","1312","169234","287733","288253","1371","150289","161699","288253","288963","NA","287717","Fraction component detection task","90","63726","91","yes","1280"
"97.8260869565","97.8260869565","699","699","#808080","no","legacy","legacy","legacy","0","uniform","0","undefined","undefined","undefined","0","a","0","0","0","91","0","0","91","91","0","0","0","91","91","0","91","Fri Apr 27 13:03:26 2018","#757575","low","3","The main experiment item","yes","","experiment.osexp","/Users/tom/github/sft-fraction/procedure","no","mono","no","24","no","white","no","yes","800","legacy","91","91","0","/Users/tom/github/sft-fraction/results/data/subject-5a.csv","legacy","#000000","high","4","Jazzy James","3.1.9","0","l","NA","space","space","space","l","NA","582","NA","148901","11392","7534","582","NA","2","legacy","1024","2","48000","-16","experiment","5","odd","absent","169250","169250","NA","210691","1312","169234","289043","289561","1371","150289","161699","289561","290146","NA","289027","Fraction component detection task","90","64308","92","yes","1280"
"97.8494623656","97.8494623656","699.322580645","699.322580645","#808080","no","legacy","legacy","legacy","0","uniform","1","undefined","undefined","undefined","1","a","0","0","0","92","0","0","92","92","0","0","0","92","92","0","92","Fri Apr 27 13:03:26 2018","#000000","high","4","The main experiment item","yes","","experiment.osexp","/Users/tom/github/sft-fraction/procedure","no","mono","no","24","no","white","no","yes","800","legacy","92","92","0","/Users/tom/github/sft-fraction/results/data/subject-5a.csv","legacy","#757575","low","2","Jazzy James","3.1.9","0","a","NA","space","space","space","a","NA","729","NA","148901","11392","7534","729","NA","2","legacy","1024","2","48000","-16","experiment","5","odd","absent","169250","169250","NA","290169","1312","169234","291250","291767","1371","150289","161699","291767","292500","NA","291233","Fraction component detection task","91","65037","93","yes","1280"
"97.8723404255","97.8723404255","698.265957447","698.265957447","#808080","no","legacy","legacy","legacy","0","uniform","1","undefined","undefined","undefined","1","l","0","0","0","93","0","0","93","93","0","0","0","93","93","0","93","Fri Apr 27 13:03:26 2018","#757575","low","4","The main experiment item","yes","","experiment.osexp","/Users/tom/github/sft-fraction/procedure","no","mono","no","24","no","white","no","yes","800","legacy","93","93","0","/Users/tom/github/sft-fraction/results/data/subject-5a.csv","legacy","#000000","high","6","Jazzy James","3.1.9","0","l","NA","space","space","space","l","NA","600","NA","148901","11392","7534","600","NA","2","legacy","1024","2","48000","-16","experiment","5","odd","present","169250","169250","NA","290169","1312","169234","292586","293103","1371","150289","161699","293104","293707","NA","292569","Fraction component detection task","92","65637","94","yes","1280"
"97.8947368421","97.8947368421","697.294736842","697.294736842","#808080","no","legacy","legacy","legacy","0","uniform","1","undefined","undefined","undefined","1","a","0","0","0","94","0","0","94","94","0","0","0","94","94","0","94","Fri Apr 27 13:03:26 2018","#000000","high","2","The main experiment item","yes","","experiment.osexp","/Users/tom/github/sft-fraction/procedure","no","mono","no","24","no","white","no","yes","800","legacy","94","94","0","/Users/tom/github/sft-fraction/results/data/subject-5a.csv","legacy","#000000","high","4","Jazzy James","3.1.9","0","a","NA","space","space","space","a","NA","606","NA","148901","11392","7534","606","NA","2","legacy","1024","2","48000","-16","experiment","5","odd","absent","169250","169250","NA","290169","1312","169234","293788","294306","1371","150289","161699","294306","294915","NA","293773","Fraction component detection task","93","66243","95","yes","1280"
"97.9166666667","97.9166666667","696.364583333","696.364583333","#808080","no","legacy","legacy","legacy","0","uniform","1","undefined","undefined","undefined","1","l","0","0","0","95","0","0","95","95","0","0","0","95","95","0","95","Fri Apr 27 13:03:26 2018","#757575","low","7","The main experiment item","yes","","experiment.osexp","/Users/tom/github/sft-fraction/procedure","no","mono","no","24","no","white","no","yes","800","legacy","95","95","0","/Users/tom/github/sft-fraction/results/data/subject-5a.csv","legacy","#000000","high","3","Jazzy James","3.1.9","0","l","NA","space","space","space","l","NA","608","NA","148901","11392","7534","608","NA","2","legacy","1024","2","48000","-16","experiment","5","odd","present","169250","169250","NA","290169","1312","169234","294998","295519","1371","150289","161699","295519","296130","NA","294978","Fraction component detection task","94","66851","96","yes","1280"
"97.9381443299","97.9381443299","695.690721649","695.690721649","#808080","no","legacy","legacy","legacy","0","uniform","1","undefined","undefined","undefined","1","a","0","0","0","96","0","0","96","96","0","0","0","96","96","0","96","Fri Apr 27 13:03:26 2018","#000000","high","3","The main experiment item","yes","","experiment.osexp","/Users/tom/github/sft-fraction/procedure","no","mono","no","24","no","white","no","yes","800","legacy","96","96","0","/Users/tom/github/sft-fraction/results/data/subject-5a.csv","legacy","#757575","low","4","Jazzy James","3.1.9","0","a","NA","space","space","space","a","NA","631","NA","148901","11392","7534","631","NA","2","legacy","1024","2","48000","-16","experiment","5","odd","absent","169250","169250","NA","290169","1312","169234","296219","296736","1371","150289","161699","296737","297371","NA","296197","Fraction component detection task","95","67482","97","yes","1280"
"97.9591836735","97.9591836735","694.918367347","694.918367347","#808080","no","legacy","legacy","legacy","0","uniform","1","undefined","undefined","undefined","1","l","0","0","0","97","0","0","97","97","0","0","0","97","97","0","97","Fri Apr 27 13:03:26 2018","#757575","low","3","The main experiment item","yes","","experiment.osexp","/Users/tom/github/sft-fraction/procedure","no","mono","no","24","no","white","no","yes","800","legacy","97","97","0","/Users/tom/github/sft-fraction/results/data/subject-5a.csv","legacy","#000000","high","7","Jazzy James","3.1.9","0","l","NA","space","space","space","l","NA","620","NA","148901","11392","7534","620","NA","2","legacy","1024","2","48000","-16","experiment","5","odd","present","169250","169250","NA","290169","1312","169234","297456","297973","1371","150289","161699","297973","298595","NA","297436","Fraction component detection task","96","68102","98","yes","1280"
"97.9797979798","97.9797979798","696.505050505","696.505050505","#808080","no","legacy","legacy","legacy","0","uniform","1","undefined","undefined","undefined","1","l","0","0","0","98","0","0","98","98","0","0","0","98","98","0","98","Fri Apr 27 13:03:26 2018","#757575","low","6","The main experiment item","yes","","experiment.osexp","/Users/tom/github/sft-fraction/procedure","no","mono","no","24","no","white","no","yes","800","legacy","98","98","0","/Users/tom/github/sft-fraction/results/data/subject-5a.csv","legacy","#757575","low","2","Jazzy James","3.1.9","0","l","NA","space","space","space","l","NA","852","NA","148901","11392","7534","852","NA","2","legacy","1024","2","48000","-16","experiment","5","odd","present","169250","169250","NA","290169","1312","169234","298680","299196","1371","150289","161699","299196","300052","NA","298664","Fraction component detection task","97","68954","99","yes","1280"
"98","98","694.78","694.78","#808080","no","legacy","legacy","legacy","0","uniform","1","undefined","undefined","undefined","1","l","0","0","0","99","0","0","99","99","0","0","0","99","99","0","99","Fri Apr 27 13:03:26 2018","#757575","low","2","The main experiment item","yes","","experiment.osexp","/Users/tom/github/sft-fraction/procedure","no","mono","no","24","no","white","no","yes","800","legacy","99","99","0","/Users/tom/github/sft-fraction/results/data/subject-5a.csv","legacy","#757575","low","7","Jazzy James","3.1.9","0","l","NA","space","space","space","l","NA","524","NA","148901","11392","7534","524","NA","2","legacy","1024","2","48000","-16","experiment","5","odd","present","169250","169250","NA","290169","1312","169234","300134","300652","1371","150289","161699","300652","301178","NA","300117","Fraction component detection task","98","69478","100","yes","1280"
"98.0198019802","98.0198019802","692.168316832","692.168316832","#808080","no","legacy","legacy","legacy","0","uniform","1","undefined","undefined","undefined","1","a","0","0","0","100","0","0","100","100","0","0","0","100","100","0","100","Fri Apr 27 13:03:26 2018","#000000","high","4","The main experiment item","yes","","experiment.osexp","/Users/tom/github/sft-fraction/procedure","no","mono","no","24","no","white","no","yes","800","legacy","100","100","0","/Users/tom/github/sft-fraction/results/data/subject-5a.csv","legacy","#757575","low","4","Jazzy James","3.1.9","0","a","NA","space","space","space","a","NA","431","NA","148901","11392","7534","431","NA","2","legacy","1024","2","48000","-16","experiment","5","odd","absent","169250","169250","NA","290169","1312","169234","301260","301777","1371","150289","161699","301777","302211","NA","301244","Fraction component detection task","99","69909","101","yes","1280"
"98.0392156863","98.0392156863","689.87254902","689.87254902","#808080","no","legacy","legacy","legacy","0","uniform","1","undefined","undefined","undefined","1","a","0","0","0","101","0","0","101","101","0","0","0","101","101","0","101","Fri Apr 27 13:03:26 2018","#757575","low","4","The main experiment item","yes","","experiment.osexp","/Users/tom/github/sft-fraction/procedure","no","mono","no","24","no","white","no","yes","800","legacy","101","101","0","/Users/tom/github/sft-fraction/results/data/subject-5a.csv","legacy","#757575","low","3","Jazzy James","3.1.9","0","a","NA","space","space","space","a","NA","458","NA","148901","11392","7534","458","NA","2","legacy","1024","2","48000","-16","experiment","5","odd","absent","169250","169250","NA","290169","1312","169234","302300","302822","1371","150289","161699","302822","303283","NA","302281","Fraction component detection task","100","70367","102","yes","1280"
"98.0582524272","98.0582524272","688.262135922","688.262135922","#808080","no","legacy","legacy","legacy","0","uniform","1","undefined","undefined","undefined","1","l","0","0","0","102","0","0","102","102","0","0","0","102","102","0","102","Fri Apr 27 13:03:26 2018","#000000","high","3","The main experiment item","yes","","experiment.osexp","/Users/tom/github/sft-fraction/procedure","no","mono","no","24","no","white","no","yes","800","legacy","102","102","0","/Users/tom/github/sft-fraction/results/data/subject-5a.csv","legacy","#757575","low","6","Jazzy James","3.1.9","0","l","NA","space","space","space","l","NA","524","NA","148901","11392","7534","524","NA","2","legacy","1024","2","48000","-16","experiment","5","odd","present","169250","169250","NA","290169","1312","169234","303377","303893","1371","150289","161699","303893","304420","NA","303359","Fraction component detection task","101","70891","103","yes","1280"
"98.0769230769","98.0769230769","686.951923077","686.951923077","#808080","no","legacy","legacy","legacy","0","uniform","1","undefined","undefined","undefined","1","a","0","0","0","103","0","0","103","103","0","0","0","103","103","0","103","Fri Apr 27 13:03:26 2018","#000000","high","3","The main experiment item","yes","","experiment.osexp","/Users/tom/github/sft-fraction/procedure","no","mono","no","24","no","white","no","yes","800","legacy","103","103","0","/Users/tom/github/sft-fraction/results/data/subject-5a.csv","legacy","#000000","high","3","Jazzy James","3.1.9","0","a","NA","space","space","space","a","NA","552","NA","148901","11392","7534","552","NA","2","legacy","1024","2","48000","-16","experiment","5","odd","absent","169250","169250","NA","290169","1312","169234","304501","305017","1371","150289","161699","305017","305572","NA","304486","Fraction component detection task","102","71443","104","yes","1280"
"98.0952380952","98.0952380952","685.066666667","685.066666667","#808080","no","legacy","legacy","legacy","0","uniform","1","undefined","undefined","undefined","1","l","0","0","0","104","0","0","104","104","0","0","0","104","104","0","104","Fri Apr 27 13:03:26 2018","#000000","high","7","The main experiment item","yes","","experiment.osexp","/Users/tom/github/sft-fraction/procedure","no","mono","no","24","no","white","no","yes","800","legacy","104","104","0","/Users/tom/github/sft-fraction/results/data/subject-5a.csv","legacy","#757575","low","3","Jazzy James","3.1.9","0","l","NA","space","space","space","l","NA","489","NA","148901","11392","7534","489","NA","2","legacy","1024","2","48000","-16","experiment","5","odd","present","169250","169250","NA","290169","1312","169234","305652","306168","1371","150289","161699","306168","306660","NA","305636","Fraction component detection task","103","71932","105","yes","1280"
"98.1132075472","98.1132075472","684.226415094","684.226415094","#808080","no","legacy","legacy","legacy","0","uniform","1","undefined","undefined","undefined","1","l","0","0","0","105","0","0","105","105","0","0","0","105","105","0","105","Fri Apr 27 13:03:26 2018","#000000","high","8","The main experiment item","yes","","experiment.osexp","/Users/tom/github/sft-fraction/procedure","no","mono","no","24","no","white","no","yes","800","legacy","105","105","0","/Users/tom/github/sft-fraction/results/data/subject-5a.csv","legacy","#000000","high","7","Jazzy James","3.1.9","0","l","NA","space","space","space","l","NA","596","NA","148901","11392","7534","596","NA","2","legacy","1024","2","48000","-16","experiment","5","odd","present","169250","169250","NA","290169","1312","169234","306739","307261","1371","150289","161699","307261","307860","NA","306723","Fraction component detection task","104","72528","106","yes","1280"
"98.1308411215","98.1308411215","683.990654206","683.990654206","#808080","no","legacy","legacy","legacy","0","uniform","1","undefined","undefined","undefined","1","l","0","0","0","106","0","0","106","106","0","0","0","106","106","0","106","Fri Apr 27 13:03:26 2018","#757575","low","7","The main experiment item","yes","","experiment.osexp","/Users/tom/github/sft-fraction/procedure","no","mono","no","24","no","white","no","yes","800","legacy","106","106","0","/Users/tom/github/sft-fraction/results/data/subject-5a.csv","legacy","#000000","high","4","Jazzy James","3.1.9","0","l","NA","space","space","space","l","NA","659","NA","148901","11392","7534","659","NA","2","legacy","1024","2","48000","-16","experiment","5","odd","present","169250","169250","NA","290169","1312","169234","307944","308460","1371","150289","161699","308461","309123","NA","307926","Fraction component detection task","105","73187","107","yes","1280"
