"acc","accuracy","average_response_time","avg_rt","background","bidi","canvas_backend","clock_backend","color_backend","compensation","coordinates","correct","correct_instructions1","correct_instructions2","correct_instructions3","correct_keyboard_response","correct_response","count_block_loop","count_block_sequence","count_end_of_experiment","count_error","count_experiment","count_experimental_loop","count_fixation_dot","count_fraction","count_instructions1","count_instructions2","count_instructions3","count_keyboard_response","count_logger","count_rest","count_trial_sequence","datetime","denomColor","denomSalience","denominator","description","disable_garbage_collection","empty_column","experiment_file","experiment_path","fontDenom","fontNum","font_bold","font_family","font_italic","font_size","font_underline","foreground","form_clicks","fullscreen","height","keyboard_backend","live_row","live_row_block_loop","live_row_experimental_loop","logfile","mouse_backend","numColor","numSalience","numerator","opensesame_codename","opensesame_version","repeat_cycle","response","response_end_of_experiment","response_instructions1","response_instructions2","response_instructions3","response_keyboard_response","response_rest","response_time","response_time_end_of_experiment","response_time_instructions1","response_time_instructions2","response_time_instructions3","response_time_keyboard_response","response_time_rest","round_decimals","sampler_backend","sound_buf_size","sound_channels","sound_freq","sound_sample_size","start","subject_nr","subject_parity","target","time_block_loop","time_block_sequence","time_end_of_experiment","time_error","time_experiment","time_experimental_loop","time_fixation_dot","time_fraction","time_instructions1","time_instructions2","time_instructions3","time_keyboard_response","time_logger","time_rest","time_trial_sequence","title","total_correct","total_response_time","total_responses","uniform_coordinates","width"
"100","100","11217","11217","#808080","no","legacy","legacy","legacy","0","uniform","1","undefined","undefined","undefined","1","l","0","0","0","0","0","0","0","0","0","0","0","0","0","0","0","Wed May  2 09:04:42 2018","#000000","high","8","The main experiment item","yes","","exp2.osexp","/Users/tom/github/sft-fraction/exp2","mono","Zapfino","no","mono","no","24","no","white","no","yes","800","legacy","0","0","0","/Users/tom/github/sft-fraction/exp2/data/subject-2a.csv","legacy","#757575","low","6","Jazzy James","3.1.9","0","l","NA","space","space","space","l","NA","11217","NA","115152","12630","5829","11217","NA","2","legacy","1024","2","48000","-16","experiment","2","even","present","135087","135087","NA","NA","1384","135070","135376","135893","1420","116591","129239","135893","147121","NA","135353","Fraction component detection task","1","11217","1","yes","1280"
"100","100","6461","6461","#808080","no","legacy","legacy","legacy","0","uniform","1","undefined","undefined","undefined","1","a","0","0","0","1","0","0","1","1","0","0","0","1","1","0","1","Wed May  2 09:04:42 2018","#000000","high","2","The main experiment item","yes","","exp2.osexp","/Users/tom/github/sft-fraction/exp2","mono","Zapfino","no","mono","no","24","no","white","no","yes","800","legacy","1","1","0","/Users/tom/github/sft-fraction/exp2/data/subject-2a.csv","legacy","#757575","low","3","Jazzy James","3.1.9","0","a","NA","space","space","space","a","NA","1705","NA","115152","12630","5829","1705","NA","2","legacy","1024","2","48000","-16","experiment","2","even","absent","135087","135087","NA","NA","1384","135070","147233","147750","1420","116591","129239","147750","149456","NA","147217","Fraction component detection task","2","12922","2","yes","1280"
"100","100","4982","4982","#808080","no","legacy","legacy","legacy","0","uniform","1","undefined","undefined","undefined","1","l","0","0","0","2","0","0","2","2","0","0","0","2","2","0","2","Wed May  2 09:04:42 2018","#000000","high","4","The main experiment item","yes","","exp2.osexp","/Users/tom/github/sft-fraction/exp2","mono","Zapfino","no","mono","no","24","no","white","no","yes","800","legacy","2","2","0","/Users/tom/github/sft-fraction/exp2/data/subject-2a.csv","legacy","#757575","low","8","Jazzy James","3.1.9","0","l","NA","space","space","space","l","NA","2024","NA","115152","12630","5829","2024","NA","2","legacy","1024","2","48000","-16","experiment","2","even","present","135087","135087","NA","NA","1384","135070","149552","150070","1420","116591","129239","150070","152096","NA","149536","Fraction component detection task","3","14946","3","yes","1280"
"100","100","4098","4098","#808080","no","legacy","legacy","legacy","0","uniform","1","undefined","undefined","undefined","1","l","0","0","0","3","0","0","3","3","0","0","0","3","3","0","3","Wed May  2 09:04:42 2018","#757575","low","7","The main experiment item","yes","","exp2.osexp","/Users/tom/github/sft-fraction/exp2","Zapfino","mono","no","mono","no","24","no","white","no","yes","800","legacy","3","3","0","/Users/tom/github/sft-fraction/exp2/data/subject-2a.csv","legacy","#000000","high","2","Jazzy James","3.1.9","0","l","NA","space","space","space","l","NA","1446","NA","115152","12630","5829","1446","NA","2","legacy","1024","2","48000","-16","experiment","2","even","present","135087","135087","NA","NA","1384","135070","152188","152705","1420","116591","129239","152705","154152","NA","152170","Fraction component detection task","4","16392","4","yes","1280"
"100","100","3572.2","3572.2","#808080","no","legacy","legacy","legacy","0","uniform","1","undefined","undefined","undefined","1","a","0","0","0","4","0","0","4","4","0","0","0","4","4","0","4","Wed May  2 09:04:42 2018","#000000","high","4","The main experiment item","yes","","exp2.osexp","/Users/tom/github/sft-fraction/exp2","mono","mono","no","mono","no","24","no","white","no","yes","800","legacy","4","4","0","/Users/tom/github/sft-fraction/exp2/data/subject-2a.csv","legacy","#000000","high","4","Jazzy James","3.1.9","0","a","NA","space","space","space","a","NA","1469","NA","115152","12630","5829","1469","NA","2","legacy","1024","2","48000","-16","experiment","2","even","absent","135087","135087","NA","NA","1384","135070","154241","154762","1420","116591","129239","154762","156233","NA","154220","Fraction component detection task","5","17861","5","yes","1280"
"100","100","3155.33333333","3155.33333333","#808080","no","legacy","legacy","legacy","0","uniform","1","undefined","undefined","undefined","1","a","0","0","0","5","0","0","5","5","0","0","0","5","5","0","5","Wed May  2 09:04:42 2018","#000000","high","3","The main experiment item","yes","","exp2.osexp","/Users/tom/github/sft-fraction/exp2","mono","mono","no","mono","no","24","no","white","no","yes","800","legacy","5","5","0","/Users/tom/github/sft-fraction/exp2/data/subject-2a.csv","legacy","#000000","high","3","Jazzy James","3.1.9","0","a","NA","space","space","space","a","NA","1071","NA","115152","12630","5829","1071","NA","2","legacy","1024","2","48000","-16","experiment","2","even","absent","135087","135087","NA","NA","1384","135070","156319","156840","1420","116591","129239","156840","157913","NA","156299","Fraction component detection task","6","18932","6","yes","1280"
"100","100","3115.85714286","3115.85714286","#808080","no","legacy","legacy","legacy","0","uniform","1","undefined","undefined","undefined","1","l","0","0","0","6","0","0","6","6","0","0","0","6","6","0","6","Wed May  2 09:04:42 2018","#757575","low","3","The main experiment item","yes","","exp2.osexp","/Users/tom/github/sft-fraction/exp2","Zapfino","Zapfino","no","mono","no","24","no","white","no","yes","800","legacy","6","6","0","/Users/tom/github/sft-fraction/exp2/data/subject-2a.csv","legacy","#757575","low","8","Jazzy James","3.1.9","0","l","NA","space","space","space","l","NA","2879","NA","115152","12630","5829","2879","NA","2","legacy","1024","2","48000","-16","experiment","2","even","present","135087","135087","NA","NA","1384","135070","157993","158512","1420","116591","129239","158512","161393","NA","157977","Fraction component detection task","7","21811","7","yes","1280"
"100","100","2890.25","2890.25","#808080","no","legacy","legacy","legacy","0","uniform","1","undefined","undefined","undefined","1","l","0","0","0","7","0","0","7","7","0","0","0","7","7","0","7","Wed May  2 09:04:42 2018","#757575","low","7","The main experiment item","yes","","exp2.osexp","/Users/tom/github/sft-fraction/exp2","Zapfino","mono","no","mono","no","24","no","white","no","yes","800","legacy","7","7","0","/Users/tom/github/sft-fraction/exp2/data/subject-2a.csv","legacy","#000000","high","4","Jazzy James","3.1.9","0","l","NA","space","space","space","l","NA","1311","NA","115152","12630","5829","1311","NA","2","legacy","1024","2","48000","-16","experiment","2","even","present","135087","135087","NA","NA","1384","135070","161476","161992","1420","116591","129239","161992","163305","NA","161459","Fraction component detection task","8","23122","8","yes","1280"
"100","100","2682.88888889","2682.88888889","#808080","no","legacy","legacy","legacy","0","uniform","1","undefined","undefined","undefined","1","l","0","0","0","8","0","0","8","8","0","0","0","8","8","0","8","Wed May  2 09:04:42 2018","#757575","low","3","The main experiment item","yes","","exp2.osexp","/Users/tom/github/sft-fraction/exp2","Zapfino","Zapfino","no","mono","no","24","no","white","no","yes","800","legacy","8","8","0","/Users/tom/github/sft-fraction/exp2/data/subject-2a.csv","legacy","#757575","low","7","Jazzy James","3.1.9","0","l","NA","space","space","space","l","NA","1024","NA","115152","12630","5829","1024","NA","2","legacy","1024","2","48000","-16","experiment","2","even","present","135087","135087","NA","NA","1384","135070","163391","163910","1420","116591","129239","163911","164937","NA","163370","Fraction component detection task","9","24146","9","yes","1280"
"100","100","2497.1","2497.1","#808080","no","legacy","legacy","legacy","0","uniform","1","undefined","undefined","undefined","1","a","0","0","0","9","0","0","9","9","0","0","0","9","9","0","9","Wed May  2 09:04:42 2018","#000000","high","2","The main experiment item","yes","","exp2.osexp","/Users/tom/github/sft-fraction/exp2","mono","mono","no","mono","no","24","no","white","no","yes","800","legacy","9","9","0","/Users/tom/github/sft-fraction/exp2/data/subject-2a.csv","legacy","#000000","high","2","Jazzy James","3.1.9","0","a","NA","space","space","space","a","NA","825","NA","115152","12630","5829","825","NA","2","legacy","1024","2","48000","-16","experiment","2","even","absent","135087","135087","NA","NA","1384","135070","165018","165535","1420","116591","129239","165535","166361","NA","165002","Fraction component detection task","10","24971","10","yes","1280"
"100","100","2360.09090909","2360.09090909","#808080","no","legacy","legacy","legacy","0","uniform","1","undefined","undefined","undefined","1","a","0","0","0","10","0","0","10","10","0","0","0","10","10","0","10","Wed May  2 09:04:42 2018","#757575","low","3","The main experiment item","yes","","exp2.osexp","/Users/tom/github/sft-fraction/exp2","Zapfino","mono","no","mono","no","24","no","white","no","yes","800","legacy","10","10","0","/Users/tom/github/sft-fraction/exp2/data/subject-2a.csv","legacy","#000000","high","3","Jazzy James","3.1.9","0","a","NA","space","space","space","a","NA","990","NA","115152","12630","5829","990","NA","2","legacy","1024","2","48000","-16","experiment","2","even","absent","135087","135087","NA","NA","1384","135070","166453","166969","1420","116591","129239","166970","167961","NA","166432","Fraction component detection task","11","25961","11","yes","1280"
"100","100","2234.66666667","2234.66666667","#808080","no","legacy","legacy","legacy","0","uniform","1","undefined","undefined","undefined","1","l","0","0","0","11","0","0","11","11","0","0","0","11","11","0","11","Wed May  2 09:04:42 2018","#000000","high","8","The main experiment item","yes","","exp2.osexp","/Users/tom/github/sft-fraction/exp2","mono","Zapfino","no","mono","no","24","no","white","no","yes","800","legacy","11","11","0","/Users/tom/github/sft-fraction/exp2/data/subject-2a.csv","legacy","#757575","low","2","Jazzy James","3.1.9","0","l","NA","space","space","space","l","NA","855","NA","115152","12630","5829","855","NA","2","legacy","1024","2","48000","-16","experiment","2","even","present","135087","135087","NA","NA","1384","135070","168048","168569","1420","116591","129239","168569","169425","NA","168027","Fraction component detection task","12","26816","12","yes","1280"
"100","100","2148.07692308","2148.07692308","#808080","no","legacy","legacy","legacy","0","uniform","1","undefined","undefined","undefined","1","a","0","0","0","12","0","0","12","12","0","0","0","12","12","0","12","Wed May  2 09:04:42 2018","#757575","low","4","The main experiment item","yes","","exp2.osexp","/Users/tom/github/sft-fraction/exp2","Zapfino","Zapfino","no","mono","no","24","no","white","no","yes","800","legacy","12","12","0","/Users/tom/github/sft-fraction/exp2/data/subject-2a.csv","legacy","#757575","low","2","Jazzy James","3.1.9","0","a","NA","space","space","space","a","NA","1109","NA","115152","12630","5829","1109","NA","2","legacy","1024","2","48000","-16","experiment","2","even","absent","135087","135087","NA","NA","1384","135070","169517","170035","1420","116591","129239","170035","171146","NA","169496","Fraction component detection task","13","27925","13","yes","1280"
"100","100","2045.85714286","2045.85714286","#808080","no","legacy","legacy","legacy","0","uniform","1","undefined","undefined","undefined","1","a","0","0","0","13","0","0","13","13","0","0","0","13","13","0","13","Wed May  2 09:04:42 2018","#000000","high","3","The main experiment item","yes","","exp2.osexp","/Users/tom/github/sft-fraction/exp2","mono","Zapfino","no","mono","no","24","no","white","no","yes","800","legacy","13","13","0","/Users/tom/github/sft-fraction/exp2/data/subject-2a.csv","legacy","#757575","low","2","Jazzy James","3.1.9","0","a","NA","space","space","space","a","NA","717","NA","115152","12630","5829","717","NA","2","legacy","1024","2","48000","-16","experiment","2","even","absent","135087","135087","NA","NA","1384","135070","171229","171747","1420","116591","129239","171747","172466","NA","171213","Fraction component detection task","14","28642","14","yes","1280"
"100","100","1960.2","1960.2","#808080","no","legacy","legacy","legacy","0","uniform","1","undefined","undefined","undefined","1","l","0","0","0","14","0","0","14","14","0","0","0","14","14","0","14","Wed May  2 09:04:42 2018","#757575","low","7","The main experiment item","yes","","exp2.osexp","/Users/tom/github/sft-fraction/exp2","Zapfino","Zapfino","no","mono","no","24","no","white","no","yes","800","legacy","14","14","0","/Users/tom/github/sft-fraction/exp2/data/subject-2a.csv","legacy","#757575","low","8","Jazzy James","3.1.9","0","l","NA","space","space","space","l","NA","761","NA","115152","12630","5829","761","NA","2","legacy","1024","2","48000","-16","experiment","2","even","present","135087","135087","NA","NA","1384","135070","172554","173070","1420","116591","129239","173071","173834","NA","172533","Fraction component detection task","15","29403","15","yes","1280"
"100","100","1918.125","1918.125","#808080","no","legacy","legacy","legacy","0","uniform","1","undefined","undefined","undefined","1","l","0","0","0","15","0","0","15","15","0","0","0","15","15","0","15","Wed May  2 09:04:42 2018","#000000","high","3","The main experiment item","yes","","exp2.osexp","/Users/tom/github/sft-fraction/exp2","mono","mono","no","mono","no","24","no","white","no","yes","800","legacy","15","15","0","/Users/tom/github/sft-fraction/exp2/data/subject-2a.csv","legacy","#000000","high","6","Jazzy James","3.1.9","0","l","NA","space","space","space","l","NA","1287","NA","115152","12630","5829","1287","NA","2","legacy","1024","2","48000","-16","experiment","2","even","present","135087","135087","NA","NA","1384","135070","173915","174432","1420","116591","129239","174433","175722","NA","173900","Fraction component detection task","16","30690","16","yes","1280"
"100","100","1870.70588235","1870.70588235","#808080","no","legacy","legacy","legacy","0","uniform","1","undefined","undefined","undefined","1","l","0","0","0","16","0","0","16","16","0","0","0","16","16","0","16","Wed May  2 09:04:42 2018","#757575","low","6","The main experiment item","yes","","exp2.osexp","/Users/tom/github/sft-fraction/exp2","Zapfino","mono","no","mono","no","24","no","white","no","yes","800","legacy","16","16","0","/Users/tom/github/sft-fraction/exp2/data/subject-2a.csv","legacy","#000000","high","3","Jazzy James","3.1.9","0","l","NA","space","space","space","l","NA","1112","NA","115152","12630","5829","1112","NA","2","legacy","1024","2","48000","-16","experiment","2","even","present","135087","135087","NA","NA","1384","135070","175808","176328","1420","116591","129239","176328","177442","NA","175787","Fraction component detection task","17","31802","17","yes","1280"
"100","100","1818.16666667","1818.16666667","#808080","no","legacy","legacy","legacy","0","uniform","1","undefined","undefined","undefined","1","a","0","0","0","17","0","0","17","17","0","0","0","17","17","0","17","Wed May  2 09:04:42 2018","#000000","high","4","The main experiment item","yes","","exp2.osexp","/Users/tom/github/sft-fraction/exp2","mono","Zapfino","no","mono","no","24","no","white","no","yes","800","legacy","17","17","0","/Users/tom/github/sft-fraction/exp2/data/subject-2a.csv","legacy","#757575","low","2","Jazzy James","3.1.9","0","a","NA","space","space","space","a","NA","925","NA","115152","12630","5829","925","NA","2","legacy","1024","2","48000","-16","experiment","2","even","absent","135087","135087","NA","NA","1384","135070","177535","178051","1420","116591","129239","178051","178978","NA","177519","Fraction component detection task","18","32727","18","yes","1280"
"100","100","1771.89473684","1771.89473684","#808080","no","legacy","legacy","legacy","0","uniform","1","undefined","undefined","undefined","1","a","0","0","0","18","0","0","18","18","0","0","0","18","18","0","18","Wed May  2 09:04:42 2018","#000000","high","3","The main experiment item","yes","","exp2.osexp","/Users/tom/github/sft-fraction/exp2","mono","mono","no","mono","no","24","no","white","no","yes","800","legacy","18","18","0","/Users/tom/github/sft-fraction/exp2/data/subject-2a.csv","legacy","#000000","high","3","Jazzy James","3.1.9","0","a","NA","space","space","space","a","NA","939","NA","115152","12630","5829","939","NA","2","legacy","1024","2","48000","-16","experiment","2","even","absent","135087","135087","NA","NA","1384","135070","179064","179581","1420","116591","129239","179581","180522","NA","179043","Fraction component detection task","19","33666","19","yes","1280"
"100","100","1727.15","1727.15","#808080","no","legacy","legacy","legacy","0","uniform","1","undefined","undefined","undefined","1","l","0","0","0","19","0","0","19","19","0","0","0","19","19","0","19","Wed May  2 09:04:42 2018","#000000","high","8","The main experiment item","yes","","exp2.osexp","/Users/tom/github/sft-fraction/exp2","mono","mono","no","mono","no","24","no","white","no","yes","800","legacy","19","19","0","/Users/tom/github/sft-fraction/exp2/data/subject-2a.csv","legacy","#000000","high","8","Jazzy James","3.1.9","0","l","NA","space","space","space","l","NA","877","NA","115152","12630","5829","877","NA","2","legacy","1024","2","48000","-16","experiment","2","even","present","135087","135087","NA","NA","1384","135070","180606","181123","1420","116591","129239","181123","182001","NA","180591","Fraction component detection task","20","34543","20","yes","1280"
"100","100","1712.23809524","1712.23809524","#808080","no","legacy","legacy","legacy","0","uniform","1","undefined","undefined","undefined","1","a","0","0","0","20","0","0","20","20","0","0","0","20","20","0","20","Wed May  2 09:04:42 2018","#757575","low","3","The main experiment item","yes","","exp2.osexp","/Users/tom/github/sft-fraction/exp2","Zapfino","mono","no","mono","no","24","no","white","no","yes","800","legacy","20","20","0","/Users/tom/github/sft-fraction/exp2/data/subject-2a.csv","legacy","#000000","high","4","Jazzy James","3.1.9","0","a","NA","space","space","space","a","NA","1414","NA","115152","12630","5829","1414","NA","2","legacy","1024","2","48000","-16","experiment","2","even","absent","135087","135087","NA","NA","1384","135070","182088","182610","1420","116591","129239","182610","184026","NA","182067","Fraction component detection task","21","35957","21","yes","1280"
"100","100","1686.04545455","1686.04545455","#808080","no","legacy","legacy","legacy","0","uniform","1","undefined","undefined","undefined","1","a","0","0","0","21","0","0","21","21","0","0","0","21","21","0","21","Wed May  2 09:04:42 2018","#000000","high","3","The main experiment item","yes","","exp2.osexp","/Users/tom/github/sft-fraction/exp2","mono","Zapfino","no","mono","no","24","no","white","no","yes","800","legacy","21","21","0","/Users/tom/github/sft-fraction/exp2/data/subject-2a.csv","legacy","#757575","low","4","Jazzy James","3.1.9","0","a","NA","space","space","space","a","NA","1136","NA","115152","12630","5829","1136","NA","2","legacy","1024","2","48000","-16","experiment","2","even","absent","135087","135087","NA","NA","1384","135070","184108","184625","1420","116591","129239","184625","185763","NA","184091","Fraction component detection task","22","37093","22","yes","1280"
"100","100","1649.69565217","1649.69565217","#808080","no","legacy","legacy","legacy","0","uniform","1","undefined","undefined","undefined","1","l","0","0","0","22","0","0","22","22","0","0","0","22","22","0","22","Wed May  2 09:04:42 2018","#757575","low","2","The main experiment item","yes","","exp2.osexp","/Users/tom/github/sft-fraction/exp2","Zapfino","Zapfino","no","mono","no","24","no","white","no","yes","800","legacy","22","22","0","/Users/tom/github/sft-fraction/exp2/data/subject-2a.csv","legacy","#757575","low","8","Jazzy James","3.1.9","0","l","NA","space","space","space","l","NA","850","NA","115152","12630","5829","850","NA","2","legacy","1024","2","48000","-16","experiment","2","even","present","135087","135087","NA","NA","1384","135070","185850","186366","1420","116591","129239","186367","187219","NA","185833","Fraction component detection task","23","37943","23","yes","1280"
"100","100","1635.79166667","1635.79166667","#808080","no","legacy","legacy","legacy","0","uniform","1","undefined","undefined","undefined","1","a","0","0","0","23","0","0","23","23","0","0","0","23","23","0","23","Wed May  2 09:04:42 2018","#757575","low","3","The main experiment item","yes","","exp2.osexp","/Users/tom/github/sft-fraction/exp2","Zapfino","Zapfino","no","mono","no","24","no","white","no","yes","800","legacy","23","23","0","/Users/tom/github/sft-fraction/exp2/data/subject-2a.csv","legacy","#757575","low","4","Jazzy James","3.1.9","0","a","NA","space","space","space","a","NA","1316","NA","115152","12630","5829","1316","NA","2","legacy","1024","2","48000","-16","experiment","2","even","absent","135087","135087","NA","NA","1384","135070","187308","187829","1420","116591","129239","187829","189147","NA","187288","Fraction component detection task","24","39259","24","yes","1280"
"100","100","1617.8","1617.8","#808080","no","legacy","legacy","legacy","0","uniform","1","undefined","undefined","undefined","1","l","0","0","0","24","0","0","24","24","0","0","0","24","24","0","24","Wed May  2 09:04:42 2018","#000000","high","6","The main experiment item","yes","","exp2.osexp","/Users/tom/github/sft-fraction/exp2","mono","Zapfino","no","mono","no","24","no","white","no","yes","800","legacy","24","24","0","/Users/tom/github/sft-fraction/exp2/data/subject-2a.csv","legacy","#757575","low","7","Jazzy James","3.1.9","0","l","NA","space","space","space","l","NA","1186","NA","115152","12630","5829","1186","NA","2","legacy","1024","2","48000","-16","experiment","2","even","present","135087","135087","NA","NA","1384","135070","189235","189751","1420","116591","129239","189751","190939","NA","189215","Fraction component detection task","25","40445","25","yes","1280"
"100","100","1590.76923077","1590.76923077","#808080","no","legacy","legacy","legacy","0","uniform","1","undefined","undefined","undefined","1","l","0","0","0","25","0","0","25","25","0","0","0","25","25","0","25","Wed May  2 09:04:42 2018","#000000","high","3","The main experiment item","yes","","exp2.osexp","/Users/tom/github/sft-fraction/exp2","mono","Zapfino","no","mono","no","24","no","white","no","yes","800","legacy","25","25","0","/Users/tom/github/sft-fraction/exp2/data/subject-2a.csv","legacy","#757575","low","6","Jazzy James","3.1.9","0","l","NA","space","space","space","l","NA","915","NA","115152","12630","5829","915","NA","2","legacy","1024","2","48000","-16","experiment","2","even","present","135087","135087","NA","NA","1384","135070","191024","191541","1420","116591","129239","191542","192459","NA","191004","Fraction component detection task","26","41360","26","yes","1280"
"100","100","1565.14814815","1565.14814815","#808080","no","legacy","legacy","legacy","0","uniform","1","undefined","undefined","undefined","1","l","0","0","0","26","0","0","26","26","0","0","0","26","26","0","26","Wed May  2 09:04:42 2018","#000000","high","8","The main experiment item","yes","","exp2.osexp","/Users/tom/github/sft-fraction/exp2","mono","mono","no","mono","no","24","no","white","no","yes","800","legacy","26","26","0","/Users/tom/github/sft-fraction/exp2/data/subject-2a.csv","legacy","#000000","high","6","Jazzy James","3.1.9","0","l","NA","space","space","space","l","NA","899","NA","115152","12630","5829","899","NA","2","legacy","1024","2","48000","-16","experiment","2","even","present","135087","135087","NA","NA","1384","135070","192544","193062","1420","116591","129239","193062","193963","NA","192523","Fraction component detection task","27","42259","27","yes","1280"
"100","100","1538.32142857","1538.32142857","#808080","no","legacy","legacy","legacy","0","uniform","1","undefined","undefined","undefined","1","l","0","0","0","27","0","0","27","27","0","0","0","27","27","0","27","Wed May  2 09:04:42 2018","#757575","low","7","The main experiment item","yes","","exp2.osexp","/Users/tom/github/sft-fraction/exp2","Zapfino","Zapfino","no","mono","no","24","no","white","no","yes","800","legacy","27","27","0","/Users/tom/github/sft-fraction/exp2/data/subject-2a.csv","legacy","#757575","low","7","Jazzy James","3.1.9","0","l","NA","space","space","space","l","NA","814","NA","115152","12630","5829","814","NA","2","legacy","1024","2","48000","-16","experiment","2","even","present","135087","135087","NA","NA","1384","135070","194047","194563","1420","116591","129239","194563","195379","NA","194027","Fraction component detection task","28","43073","28","yes","1280"
"100","100","1517.55172414","1517.55172414","#808080","no","legacy","legacy","legacy","0","uniform","1","undefined","undefined","undefined","1","a","0","0","0","28","0","0","28","28","0","0","0","28","28","0","28","Wed May  2 09:04:42 2018","#757575","low","4","The main experiment item","yes","","exp2.osexp","/Users/tom/github/sft-fraction/exp2","Zapfino","mono","no","mono","no","24","no","white","no","yes","800","legacy","28","28","0","/Users/tom/github/sft-fraction/exp2/data/subject-2a.csv","legacy","#000000","high","3","Jazzy James","3.1.9","0","a","NA","space","space","space","a","NA","936","NA","115152","12630","5829","936","NA","2","legacy","1024","2","48000","-16","experiment","2","even","absent","135087","135087","NA","NA","1384","135070","195464","195985","1420","116591","129239","195985","196923","NA","195448","Fraction component detection task","29","44009","29","yes","1280"
"100","100","1491.76666667","1491.76666667","#808080","no","legacy","legacy","legacy","0","uniform","1","undefined","undefined","undefined","1","a","0","0","0","29","0","0","29","29","0","0","0","29","29","0","29","Wed May  2 09:04:42 2018","#757575","low","3","The main experiment item","yes","","exp2.osexp","/Users/tom/github/sft-fraction/exp2","Zapfino","mono","no","mono","no","24","no","white","no","yes","800","legacy","29","29","0","/Users/tom/github/sft-fraction/exp2/data/subject-2a.csv","legacy","#000000","high","2","Jazzy James","3.1.9","0","a","NA","space","space","space","a","NA","744","NA","115152","12630","5829","744","NA","2","legacy","1024","2","48000","-16","experiment","2","even","absent","135087","135087","NA","NA","1384","135070","197012","197530","1420","116591","129239","197530","198276","NA","196994","Fraction component detection task","30","44753","30","yes","1280"
"100","100","1464.67741935","1464.67741935","#808080","no","legacy","legacy","legacy","0","uniform","1","undefined","undefined","undefined","1","a","0","0","0","30","0","0","30","30","0","0","0","30","30","0","30","Wed May  2 09:04:42 2018","#000000","high","3","The main experiment item","yes","","exp2.osexp","/Users/tom/github/sft-fraction/exp2","mono","mono","no","mono","no","24","no","white","no","yes","800","legacy","30","30","0","/Users/tom/github/sft-fraction/exp2/data/subject-2a.csv","legacy","#000000","high","3","Jazzy James","3.1.9","0","a","NA","space","space","space","a","NA","652","NA","115152","12630","5829","652","NA","2","legacy","1024","2","48000","-16","experiment","2","even","absent","135087","135087","NA","NA","1384","135070","198361","198878","1420","116591","129239","198878","199531","NA","198346","Fraction component detection task","31","45405","31","yes","1280"
"100","100","1439.375","1439.375","#808080","no","legacy","legacy","legacy","0","uniform","1","undefined","undefined","undefined","1","a","0","0","0","31","0","0","31","31","0","0","0","31","31","0","31","Wed May  2 09:04:42 2018","#000000","high","4","The main experiment item","yes","","exp2.osexp","/Users/tom/github/sft-fraction/exp2","mono","mono","no","mono","no","24","no","white","no","yes","800","legacy","31","31","0","/Users/tom/github/sft-fraction/exp2/data/subject-2a.csv","legacy","#000000","high","3","Jazzy James","3.1.9","0","a","NA","space","space","space","a","NA","655","NA","115152","12630","5829","655","NA","2","legacy","1024","2","48000","-16","experiment","2","even","absent","135087","135087","NA","NA","1384","135070","199623","200139","1420","116591","129239","200139","200796","NA","199603","Fraction component detection task","32","46060","32","yes","1280"
"100","100","1420.03030303","1420.03030303","#808080","no","legacy","legacy","legacy","0","uniform","1","undefined","undefined","undefined","1","a","0","0","0","32","0","0","32","32","0","0","0","32","32","0","32","Wed May  2 09:04:42 2018","#000000","high","4","The main experiment item","yes","","exp2.osexp","/Users/tom/github/sft-fraction/exp2","mono","Zapfino","no","mono","no","24","no","white","no","yes","800","legacy","32","32","0","/Users/tom/github/sft-fraction/exp2/data/subject-2a.csv","legacy","#757575","low","4","Jazzy James","3.1.9","0","a","NA","space","space","space","a","NA","801","NA","115152","12630","5829","801","NA","2","legacy","1024","2","48000","-16","experiment","2","even","absent","135087","135087","NA","NA","1384","135070","200884","201401","1420","116591","129239","201401","202204","NA","200864","Fraction component detection task","33","46861","33","yes","1280"
"100","100","1400.23529412","1400.23529412","#808080","no","legacy","legacy","legacy","0","uniform","1","undefined","undefined","undefined","1","l","0","0","0","33","0","0","33","33","0","0","0","33","33","0","33","Wed May  2 09:04:42 2018","#000000","high","6","The main experiment item","yes","","exp2.osexp","/Users/tom/github/sft-fraction/exp2","mono","mono","no","mono","no","24","no","white","no","yes","800","legacy","33","33","0","/Users/tom/github/sft-fraction/exp2/data/subject-2a.csv","legacy","#000000","high","2","Jazzy James","3.1.9","0","l","NA","space","space","space","l","NA","747","NA","115152","12630","5829","747","NA","2","legacy","1024","2","48000","-16","experiment","2","even","present","135087","135087","NA","NA","1384","135070","202290","202807","1420","116591","129239","202807","203556","NA","202270","Fraction component detection task","34","47608","34","yes","1280"
"100","100","1383.2","1383.2","#808080","no","legacy","legacy","legacy","0","uniform","1","undefined","undefined","undefined","1","l","0","0","0","34","0","0","34","34","0","0","0","34","34","0","34","Wed May  2 09:04:42 2018","#757575","low","7","The main experiment item","yes","","exp2.osexp","/Users/tom/github/sft-fraction/exp2","Zapfino","mono","no","mono","no","24","no","white","no","yes","800","legacy","34","34","0","/Users/tom/github/sft-fraction/exp2/data/subject-2a.csv","legacy","#000000","high","8","Jazzy James","3.1.9","0","l","NA","space","space","space","l","NA","804","NA","115152","12630","5829","804","NA","2","legacy","1024","2","48000","-16","experiment","2","even","present","135087","135087","NA","NA","1384","135070","203639","204158","1420","116591","129239","204158","204964","NA","203623","Fraction component detection task","35","48412","35","yes","1280"
"100","100","1368.22222222","1368.22222222","#808080","no","legacy","legacy","legacy","0","uniform","1","undefined","undefined","undefined","1","a","0","0","0","35","0","0","35","35","0","0","0","35","35","0","35","Wed May  2 09:04:42 2018","#757575","low","3","The main experiment item","yes","","exp2.osexp","/Users/tom/github/sft-fraction/exp2","Zapfino","mono","no","mono","no","24","no","white","no","yes","800","legacy","35","35","0","/Users/tom/github/sft-fraction/exp2/data/subject-2a.csv","legacy","#000000","high","4","Jazzy James","3.1.9","0","a","NA","space","space","space","a","NA","844","NA","115152","12630","5829","844","NA","2","legacy","1024","2","48000","-16","experiment","2","even","absent","135087","135087","NA","NA","1384","135070","205048","205565","1420","116591","129239","205566","206412","NA","205031","Fraction component detection task","36","49256","36","yes","1280"
"100","100","1349.05405405","1349.05405405","#808080","no","legacy","legacy","legacy","0","uniform","1","undefined","undefined","undefined","1","a","0","0","0","36","0","0","36","36","0","0","0","36","36","0","36","Wed May  2 09:04:42 2018","#000000","high","2","The main experiment item","yes","","exp2.osexp","/Users/tom/github/sft-fraction/exp2","mono","mono","no","mono","no","24","no","white","no","yes","800","legacy","36","36","0","/Users/tom/github/sft-fraction/exp2/data/subject-2a.csv","legacy","#000000","high","2","Jazzy James","3.1.9","0","a","NA","space","space","space","a","NA","659","NA","115152","12630","5829","659","NA","2","legacy","1024","2","48000","-16","experiment","2","even","absent","135087","135087","NA","NA","1384","135070","206499","207015","1420","116591","129239","207015","207676","NA","206483","Fraction component detection task","37","49915","37","yes","1280"
"100","100","1332.47368421","1332.47368421","#808080","no","legacy","legacy","legacy","0","uniform","1","undefined","undefined","undefined","1","a","0","0","0","37","0","0","37","37","0","0","0","37","37","0","37","Wed May  2 09:04:42 2018","#757575","low","2","The main experiment item","yes","","exp2.osexp","/Users/tom/github/sft-fraction/exp2","Zapfino","Zapfino","no","mono","no","24","no","white","no","yes","800","legacy","37","37","0","/Users/tom/github/sft-fraction/exp2/data/subject-2a.csv","legacy","#757575","low","3","Jazzy James","3.1.9","0","a","NA","space","space","space","a","NA","719","NA","115152","12630","5829","719","NA","2","legacy","1024","2","48000","-16","experiment","2","even","absent","135087","135087","NA","NA","1384","135070","207766","208282","1420","116591","129239","208282","209003","NA","207746","Fraction component detection task","38","50634","38","yes","1280"
"100","100","1320.07692308","1320.07692308","#808080","no","legacy","legacy","legacy","0","uniform","1","undefined","undefined","undefined","1","l","0","0","0","38","0","0","38","38","0","0","0","38","38","0","38","Wed May  2 09:04:42 2018","#000000","high","7","The main experiment item","yes","","exp2.osexp","/Users/tom/github/sft-fraction/exp2","mono","Zapfino","no","mono","no","24","no","white","no","yes","800","legacy","38","38","0","/Users/tom/github/sft-fraction/exp2/data/subject-2a.csv","legacy","#757575","low","4","Jazzy James","3.1.9","0","l","NA","space","space","space","l","NA","849","NA","115152","12630","5829","849","NA","2","legacy","1024","2","48000","-16","experiment","2","even","present","135087","135087","NA","NA","1384","135070","209084","209601","1420","116591","129239","209601","210452","NA","209068","Fraction component detection task","39","51483","39","yes","1280"
"100","100","1305.525","1305.525","#808080","no","legacy","legacy","legacy","0","uniform","1","undefined","undefined","undefined","1","l","0","0","0","39","0","0","39","39","0","0","0","39","39","0","39","Wed May  2 09:04:42 2018","#757575","low","3","The main experiment item","yes","","exp2.osexp","/Users/tom/github/sft-fraction/exp2","Zapfino","mono","no","mono","no","24","no","white","no","yes","800","legacy","39","39","0","/Users/tom/github/sft-fraction/exp2/data/subject-2a.csv","legacy","#000000","high","8","Jazzy James","3.1.9","0","l","NA","space","space","space","l","NA","738","NA","115152","12630","5829","738","NA","2","legacy","1024","2","48000","-16","experiment","2","even","present","135087","135087","NA","NA","1384","135070","210539","211056","1420","116591","129239","211056","211796","NA","210523","Fraction component detection task","40","52221","40","yes","1280"
"100","100","1290.7804878","1290.7804878","#808080","no","legacy","legacy","legacy","0","uniform","1","undefined","undefined","undefined","1","l","0","0","0","40","0","0","40","40","0","0","0","40","40","0","40","Wed May  2 09:04:42 2018","#757575","low","8","The main experiment item","yes","","exp2.osexp","/Users/tom/github/sft-fraction/exp2","Zapfino","mono","no","mono","no","24","no","white","no","yes","800","legacy","40","40","0","/Users/tom/github/sft-fraction/exp2/data/subject-2a.csv","legacy","#000000","high","2","Jazzy James","3.1.9","0","l","NA","space","space","space","l","NA","701","NA","115152","12630","5829","701","NA","2","legacy","1024","2","48000","-16","experiment","2","even","present","135087","135087","NA","NA","1384","135070","211879","212396","1420","116591","129239","212396","213100","NA","211864","Fraction component detection task","41","52922","41","yes","1280"
"100","100","1277.97619048","1277.97619048","#808080","no","legacy","legacy","legacy","0","uniform","1","undefined","undefined","undefined","1","l","0","0","0","41","0","0","41","41","0","0","0","41","41","0","41","Wed May  2 09:04:42 2018","#000000","high","4","The main experiment item","yes","","exp2.osexp","/Users/tom/github/sft-fraction/exp2","mono","mono","no","mono","no","24","no","white","no","yes","800","legacy","41","41","0","/Users/tom/github/sft-fraction/exp2/data/subject-2a.csv","legacy","#000000","high","8","Jazzy James","3.1.9","0","l","NA","space","space","space","l","NA","753","NA","115152","12630","5829","753","NA","2","legacy","1024","2","48000","-16","experiment","2","even","present","135087","135087","NA","NA","1384","135070","213187","213705","1420","116591","129239","213706","214461","NA","213166","Fraction component detection task","42","53675","42","yes","1280"
"100","100","1264.86046512","1264.86046512","#808080","no","legacy","legacy","legacy","0","uniform","1","undefined","undefined","undefined","1","a","0","0","0","42","0","0","42","42","0","0","0","42","42","0","42","Wed May  2 09:04:42 2018","#000000","high","3","The main experiment item","yes","","exp2.osexp","/Users/tom/github/sft-fraction/exp2","mono","mono","no","mono","no","24","no","white","no","yes","800","legacy","42","42","0","/Users/tom/github/sft-fraction/exp2/data/subject-2a.csv","legacy","#000000","high","2","Jazzy James","3.1.9","0","a","NA","space","space","space","a","NA","714","NA","115152","12630","5829","714","NA","2","legacy","1024","2","48000","-16","experiment","2","even","absent","135087","135087","NA","NA","1384","135070","214547","215065","1420","116591","129239","215065","215781","NA","214531","Fraction component detection task","43","54389","43","yes","1280"
"100","100","1257.04545455","1257.04545455","#808080","no","legacy","legacy","legacy","0","uniform","1","undefined","undefined","undefined","1","l","0","0","0","43","0","0","43","43","0","0","0","43","43","0","43","Wed May  2 09:04:42 2018","#757575","low","6","The main experiment item","yes","","exp2.osexp","/Users/tom/github/sft-fraction/exp2","Zapfino","Zapfino","no","mono","no","24","no","white","no","yes","800","legacy","43","43","0","/Users/tom/github/sft-fraction/exp2/data/subject-2a.csv","legacy","#757575","low","4","Jazzy James","3.1.9","0","l","NA","space","space","space","l","NA","921","NA","115152","12630","5829","921","NA","2","legacy","1024","2","48000","-16","experiment","2","even","present","135087","135087","NA","NA","1384","135070","215867","216386","1420","116591","129239","216386","217310","NA","215851","Fraction component detection task","44","55310","44","yes","1280"
"100","100","1245.6","1245.6","#808080","no","legacy","legacy","legacy","0","uniform","1","undefined","undefined","undefined","1","l","0","0","0","44","0","0","44","44","0","0","0","44","44","0","44","Wed May  2 09:04:42 2018","#757575","low","8","The main experiment item","yes","","exp2.osexp","/Users/tom/github/sft-fraction/exp2","Zapfino","mono","no","mono","no","24","no","white","no","yes","800","legacy","44","44","0","/Users/tom/github/sft-fraction/exp2/data/subject-2a.csv","legacy","#000000","high","3","Jazzy James","3.1.9","0","l","NA","space","space","space","l","NA","742","NA","115152","12630","5829","742","NA","2","legacy","1024","2","48000","-16","experiment","2","even","present","135087","135087","NA","NA","1384","135070","217401","217917","1420","116591","129239","217917","218661","NA","217381","Fraction component detection task","45","56052","45","yes","1280"
"100","100","1232.47826087","1232.47826087","#808080","no","legacy","legacy","legacy","0","uniform","1","undefined","undefined","undefined","1","l","0","0","0","45","0","0","45","45","0","0","0","45","45","0","45","Wed May  2 09:04:42 2018","#757575","low","8","The main experiment item","yes","","exp2.osexp","/Users/tom/github/sft-fraction/exp2","Zapfino","mono","no","mono","no","24","no","white","no","yes","800","legacy","45","45","0","/Users/tom/github/sft-fraction/exp2/data/subject-2a.csv","legacy","#000000","high","4","Jazzy James","3.1.9","0","l","NA","space","space","space","l","NA","642","NA","115152","12630","5829","642","NA","2","legacy","1024","2","48000","-16","experiment","2","even","present","135087","135087","NA","NA","1384","135070","218748","219265","1420","116591","129239","219265","219909","NA","218727","Fraction component detection task","46","56694","46","yes","1280"
"100","100","1220.78723404","1220.78723404","#808080","no","legacy","legacy","legacy","0","uniform","1","undefined","undefined","undefined","1","a","0","0","0","46","0","0","46","46","0","0","0","46","46","0","46","Wed May  2 09:04:42 2018","#757575","low","4","The main experiment item","yes","","exp2.osexp","/Users/tom/github/sft-fraction/exp2","Zapfino","mono","no","mono","no","24","no","white","no","yes","800","legacy","46","46","0","/Users/tom/github/sft-fraction/exp2/data/subject-2a.csv","legacy","#000000","high","3","Jazzy James","3.1.9","0","a","NA","space","space","space","a","NA","683","NA","115152","12630","5829","683","NA","2","legacy","1024","2","48000","-16","experiment","2","even","absent","135087","135087","NA","NA","1384","135070","219995","220512","1420","116591","129239","220512","221198","NA","219980","Fraction component detection task","47","57377","47","yes","1280"
"100","100","1214.02083333","1214.02083333","#808080","no","legacy","legacy","legacy","0","uniform","1","undefined","undefined","undefined","1","l","0","0","0","47","0","0","47","47","0","0","0","47","47","0","47","Wed May  2 09:04:42 2018","#757575","low","4","The main experiment item","yes","","exp2.osexp","/Users/tom/github/sft-fraction/exp2","Zapfino","mono","no","mono","no","24","no","white","no","yes","800","legacy","47","47","0","/Users/tom/github/sft-fraction/exp2/data/subject-2a.csv","legacy","#000000","high","8","Jazzy James","3.1.9","0","l","NA","space","space","space","l","NA","896","NA","115152","12630","5829","896","NA","2","legacy","1024","2","48000","-16","experiment","2","even","present","135087","135087","NA","NA","1384","135070","221286","221803","1420","116591","129239","221803","222701","NA","221265","Fraction component detection task","48","58273","48","yes","1280"
"100","100","1203.71428571","1203.71428571","#808080","no","legacy","legacy","legacy","0","uniform","1","undefined","undefined","undefined","1","l","0","0","0","48","0","0","48","48","0","0","0","48","48","0","48","Wed May  2 09:04:42 2018","#757575","low","7","The main experiment item","yes","","exp2.osexp","/Users/tom/github/sft-fraction/exp2","Zapfino","Zapfino","no","mono","no","24","no","white","no","yes","800","legacy","48","48","0","/Users/tom/github/sft-fraction/exp2/data/subject-2a.csv","legacy","#757575","low","3","Jazzy James","3.1.9","0","l","NA","space","space","space","l","NA","709","NA","115152","12630","5829","709","NA","2","legacy","1024","2","48000","-16","experiment","2","even","present","135087","135087","NA","NA","1384","135070","222784","223300","1420","116591","129239","223301","224012","NA","222768","Fraction component detection task","49","58982","49","yes","1280"
"100","100","1193.92","1193.92","#808080","no","legacy","legacy","legacy","0","uniform","1","undefined","undefined","undefined","1","l","0","0","0","49","0","0","49","49","0","0","0","49","49","0","49","Wed May  2 09:04:42 2018","#757575","low","4","The main experiment item","yes","","exp2.osexp","/Users/tom/github/sft-fraction/exp2","Zapfino","Zapfino","no","mono","no","24","no","white","no","yes","800","legacy","49","49","0","/Users/tom/github/sft-fraction/exp2/data/subject-2a.csv","legacy","#757575","low","6","Jazzy James","3.1.9","0","l","NA","space","space","space","l","NA","714","NA","115152","12630","5829","714","NA","2","legacy","1024","2","48000","-16","experiment","2","even","present","135087","135087","NA","NA","1384","135070","224097","224616","1420","116591","129239","224617","225333","NA","224080","Fraction component detection task","50","59696","50","yes","1280"
"100","100","1191.35294118","1191.35294118","#808080","no","legacy","legacy","legacy","0","uniform","1","undefined","undefined","undefined","1","l","0","0","0","50","0","0","50","50","0","0","0","50","50","0","50","Wed May  2 09:04:42 2018","#757575","low","6","The main experiment item","yes","","exp2.osexp","/Users/tom/github/sft-fraction/exp2","Zapfino","mono","no","mono","no","24","no","white","no","yes","800","legacy","50","50","0","/Users/tom/github/sft-fraction/exp2/data/subject-2a.csv","legacy","#000000","high","6","Jazzy James","3.1.9","0","l","NA","space","space","space","l","NA","1063","NA","115152","12630","5829","1063","NA","2","legacy","1024","2","48000","-16","experiment","2","even","present","135087","135087","NA","NA","1384","135070","225421","225939","1420","116591","129239","225939","227004","NA","225401","Fraction component detection task","51","60759","51","yes","1280"
"100","100","1186.44230769","1186.44230769","#808080","no","legacy","legacy","legacy","0","uniform","1","undefined","undefined","undefined","1","l","0","0","0","51","0","0","51","51","0","0","0","51","51","0","51","Wed May  2 09:04:42 2018","#000000","high","8","The main experiment item","yes","","exp2.osexp","/Users/tom/github/sft-fraction/exp2","mono","mono","no","mono","no","24","no","white","no","yes","800","legacy","51","51","0","/Users/tom/github/sft-fraction/exp2/data/subject-2a.csv","legacy","#000000","high","3","Jazzy James","3.1.9","0","l","NA","space","space","space","l","NA","936","NA","115152","12630","5829","936","NA","2","legacy","1024","2","48000","-16","experiment","2","even","present","135087","135087","NA","NA","1384","135070","227090","227611","1420","116591","129239","227611","228550","NA","227069","Fraction component detection task","52","61695","52","yes","1280"
"100","100","1178.28301887","1178.28301887","#808080","no","legacy","legacy","legacy","0","uniform","1","undefined","undefined","undefined","1","l","0","0","0","52","0","0","52","52","0","0","0","52","52","0","52","Wed May  2 09:04:42 2018","#000000","high","7","The main experiment item","yes","","exp2.osexp","/Users/tom/github/sft-fraction/exp2","mono","Zapfino","no","mono","no","24","no","white","no","yes","800","legacy","52","52","0","/Users/tom/github/sft-fraction/exp2/data/subject-2a.csv","legacy","#757575","low","8","Jazzy James","3.1.9","0","l","NA","space","space","space","l","NA","754","NA","115152","12630","5829","754","NA","2","legacy","1024","2","48000","-16","experiment","2","even","present","135087","135087","NA","NA","1384","135070","228636","229152","1420","116591","129239","229153","229910","NA","228615","Fraction component detection task","53","62449","53","yes","1280"
"100","100","1169.77777778","1169.77777778","#808080","no","legacy","legacy","legacy","0","uniform","1","undefined","undefined","undefined","1","a","0","0","0","53","0","0","53","53","0","0","0","53","53","0","53","Wed May  2 09:04:42 2018","#757575","low","3","The main experiment item","yes","","exp2.osexp","/Users/tom/github/sft-fraction/exp2","Zapfino","Zapfino","no","mono","no","24","no","white","no","yes","800","legacy","53","53","0","/Users/tom/github/sft-fraction/exp2/data/subject-2a.csv","legacy","#757575","low","2","Jazzy James","3.1.9","0","a","NA","space","space","space","a","NA","719","NA","115152","12630","5829","719","NA","2","legacy","1024","2","48000","-16","experiment","2","even","absent","135087","135087","NA","NA","1384","135070","230000","230516","1420","116591","129239","230516","231238","NA","229980","Fraction component detection task","54","63168","54","yes","1280"
"100","100","1168.85454545","1168.85454545","#808080","no","legacy","legacy","legacy","0","uniform","1","undefined","undefined","undefined","1","l","0","0","0","54","0","0","54","54","0","0","0","54","54","0","54","Wed May  2 09:04:42 2018","#000000","high","3","The main experiment item","yes","","exp2.osexp","/Users/tom/github/sft-fraction/exp2","mono","Zapfino","no","mono","no","24","no","white","no","yes","800","legacy","54","54","0","/Users/tom/github/sft-fraction/exp2/data/subject-2a.csv","legacy","#757575","low","7","Jazzy James","3.1.9","0","l","NA","space","space","space","l","NA","1119","NA","115152","12630","5829","1119","NA","2","legacy","1024","2","48000","-16","experiment","2","even","present","135087","135087","NA","NA","1384","135070","231325","231845","1420","116591","129239","231845","232966","NA","231307","Fraction component detection task","55","64287","55","yes","1280"
"100","100","1162.57142857","1162.57142857","#808080","no","legacy","legacy","legacy","0","uniform","1","undefined","undefined","undefined","1","a","0","0","0","55","0","0","55","55","0","0","0","55","55","0","55","Wed May  2 09:04:42 2018","#000000","high","3","The main experiment item","yes","","exp2.osexp","/Users/tom/github/sft-fraction/exp2","mono","Zapfino","no","mono","no","24","no","white","no","yes","800","legacy","55","55","0","/Users/tom/github/sft-fraction/exp2/data/subject-2a.csv","legacy","#757575","low","3","Jazzy James","3.1.9","0","a","NA","space","space","space","a","NA","817","NA","115152","12630","5829","817","NA","2","legacy","1024","2","48000","-16","experiment","2","even","absent","135087","135087","NA","NA","1384","135070","233046","233563","1420","116591","129239","233563","234382","NA","233030","Fraction component detection task","56","65104","56","yes","1280"
"100","100","1155.43859649","1155.43859649","#808080","no","legacy","legacy","legacy","0","uniform","1","undefined","undefined","undefined","1","l","0","0","0","56","0","0","56","56","0","0","0","56","56","0","56","Wed May  2 09:04:42 2018","#000000","high","2","The main experiment item","yes","","exp2.osexp","/Users/tom/github/sft-fraction/exp2","mono","mono","no","mono","no","24","no","white","no","yes","800","legacy","56","56","0","/Users/tom/github/sft-fraction/exp2/data/subject-2a.csv","legacy","#000000","high","6","Jazzy James","3.1.9","0","l","NA","space","space","space","l","NA","756","NA","115152","12630","5829","756","NA","2","legacy","1024","2","48000","-16","experiment","2","even","present","135087","135087","NA","NA","1384","135070","234465","234984","1420","116591","129239","234984","235742","NA","234449","Fraction component detection task","57","65860","57","yes","1280"
"100","100","1155.68965517","1155.68965517","#808080","no","legacy","legacy","legacy","0","uniform","1","undefined","undefined","undefined","1","a","0","0","0","57","0","0","57","57","0","0","0","57","57","0","57","Wed May  2 09:04:42 2018","#000000","high","4","The main experiment item","yes","","exp2.osexp","/Users/tom/github/sft-fraction/exp2","mono","mono","no","mono","no","24","no","white","no","yes","800","legacy","57","57","0","/Users/tom/github/sft-fraction/exp2/data/subject-2a.csv","legacy","#000000","high","3","Jazzy James","3.1.9","0","a","NA","space","space","space","a","NA","1170","NA","115152","12630","5829","1170","NA","2","legacy","1024","2","48000","-16","experiment","2","even","absent","135087","135087","NA","NA","1384","135070","235829","236346","1420","116591","129239","236346","237518","NA","235812","Fraction component detection task","58","67030","58","yes","1280"
"100","100","1157.54237288","1157.54237288","#808080","no","legacy","legacy","legacy","0","uniform","1","undefined","undefined","undefined","1","a","0","0","0","58","0","0","58","58","0","0","0","58","58","0","58","Wed May  2 09:04:42 2018","#000000","high","4","The main experiment item","yes","","exp2.osexp","/Users/tom/github/sft-fraction/exp2","mono","Zapfino","no","mono","no","24","no","white","no","yes","800","legacy","58","58","0","/Users/tom/github/sft-fraction/exp2/data/subject-2a.csv","legacy","#757575","low","2","Jazzy James","3.1.9","0","a","NA","space","space","space","a","NA","1265","NA","115152","12630","5829","1265","NA","2","legacy","1024","2","48000","-16","experiment","2","even","absent","135087","135087","NA","NA","1384","135070","237602","238123","1420","116591","129239","238123","239391","NA","237586","Fraction component detection task","59","68295","59","yes","1280"
"100","100","1151.56666667","1151.56666667","#808080","no","legacy","legacy","legacy","0","uniform","1","undefined","undefined","undefined","1","l","0","0","0","59","0","0","59","59","0","0","0","59","59","0","59","Wed May  2 09:04:42 2018","#757575","low","7","The main experiment item","yes","","exp2.osexp","/Users/tom/github/sft-fraction/exp2","Zapfino","Zapfino","no","mono","no","24","no","white","no","yes","800","legacy","59","59","0","/Users/tom/github/sft-fraction/exp2/data/subject-2a.csv","legacy","#757575","low","2","Jazzy James","3.1.9","0","l","NA","space","space","space","l","NA","799","NA","115152","12630","5829","799","NA","2","legacy","1024","2","48000","-16","experiment","2","even","present","135087","135087","NA","NA","1384","135070","239481","239997","1420","116591","129239","239997","240799","NA","239464","Fraction component detection task","60","69094","60","yes","1280"
"100","100","1143.31147541","1143.31147541","#808080","no","legacy","legacy","legacy","0","uniform","1","undefined","undefined","undefined","1","l","0","0","0","60","0","0","60","60","0","0","0","60","60","0","60","Wed May  2 09:04:42 2018","#000000","high","6","The main experiment item","yes","","exp2.osexp","/Users/tom/github/sft-fraction/exp2","mono","mono","no","mono","no","24","no","white","no","yes","800","legacy","60","60","0","/Users/tom/github/sft-fraction/exp2/data/subject-2a.csv","legacy","#000000","high","4","Jazzy James","3.1.9","0","l","NA","space","space","space","l","NA","648","NA","115152","12630","5829","648","NA","2","legacy","1024","2","48000","-16","experiment","2","even","present","135087","135087","NA","NA","1384","135070","240885","241403","1420","116591","129239","241403","242054","NA","240869","Fraction component detection task","61","69742","61","yes","1280"
"100","100","1135","1135","#808080","no","legacy","legacy","legacy","0","uniform","1","undefined","undefined","undefined","1","l","0","0","0","61","0","0","61","61","0","0","0","61","61","0","61","Wed May  2 09:04:42 2018","#000000","high","6","The main experiment item","yes","","exp2.osexp","/Users/tom/github/sft-fraction/exp2","mono","Zapfino","no","mono","no","24","no","white","no","yes","800","legacy","61","61","0","/Users/tom/github/sft-fraction/exp2/data/subject-2a.csv","legacy","#757575","low","4","Jazzy James","3.1.9","0","l","NA","space","space","space","l","NA","628","NA","115152","12630","5829","628","NA","2","legacy","1024","2","48000","-16","experiment","2","even","present","135087","135087","NA","NA","1384","135070","242142","242664","1420","116591","129239","242664","243295","NA","242121","Fraction component detection task","62","70370","62","yes","1280"
"100","100","1131.12698413","1131.12698413","#808080","no","legacy","legacy","legacy","0","uniform","1","undefined","undefined","undefined","1","a","0","0","0","62","0","0","62","62","0","0","0","62","62","0","62","Wed May  2 09:04:42 2018","#000000","high","3","The main experiment item","yes","","exp2.osexp","/Users/tom/github/sft-fraction/exp2","mono","mono","no","mono","no","24","no","white","no","yes","800","legacy","62","62","0","/Users/tom/github/sft-fraction/exp2/data/subject-2a.csv","legacy","#000000","high","4","Jazzy James","3.1.9","0","a","NA","space","space","space","a","NA","891","NA","115152","12630","5829","891","NA","2","legacy","1024","2","48000","-16","experiment","2","even","absent","135087","135087","NA","NA","1384","135070","243380","243897","1420","116591","129239","243897","244791","NA","243359","Fraction component detection task","63","71261","63","yes","1280"
"100","100","1126.203125","1126.203125","#808080","no","legacy","legacy","legacy","0","uniform","1","undefined","undefined","undefined","1","l","0","0","0","63","0","0","63","63","0","0","0","63","63","0","63","Wed May  2 09:04:42 2018","#757575","low","8","The main experiment item","yes","","exp2.osexp","/Users/tom/github/sft-fraction/exp2","Zapfino","Zapfino","no","mono","no","24","no","white","no","yes","800","legacy","63","63","0","/Users/tom/github/sft-fraction/exp2/data/subject-2a.csv","legacy","#757575","low","8","Jazzy James","3.1.9","0","l","NA","space","space","space","l","NA","816","NA","115152","12630","5829","816","NA","2","legacy","1024","2","48000","-16","experiment","2","even","present","135087","135087","NA","NA","1384","135070","244871","245387","1420","116591","129239","245388","246207","NA","244855","Fraction component detection task","64","72077","64","yes","1280"
"100","100","1121.53846154","1121.53846154","#808080","no","legacy","legacy","legacy","0","uniform","1","undefined","undefined","undefined","1","a","0","0","0","64","0","0","64","64","0","0","0","64","64","0","64","Wed May  2 09:04:42 2018","#757575","low","4","The main experiment item","yes","","exp2.osexp","/Users/tom/github/sft-fraction/exp2","Zapfino","Zapfino","no","mono","no","24","no","white","no","yes","800","legacy","64","64","0","/Users/tom/github/sft-fraction/exp2/data/subject-2a.csv","legacy","#757575","low","4","Jazzy James","3.1.9","0","a","NA","space","space","space","a","NA","823","NA","115152","12630","5829","823","NA","2","legacy","1024","2","48000","-16","experiment","2","even","absent","135087","135087","NA","NA","1384","135070","246297","246813","1420","116591","129239","246814","247640","NA","246276","Fraction component detection task","65","72900","65","yes","1280"
"100","100","1116.46969697","1116.46969697","#808080","no","legacy","legacy","legacy","0","uniform","1","undefined","undefined","undefined","1","l","0","0","0","65","0","0","65","65","0","0","0","65","65","0","65","Wed May  2 09:04:42 2018","#000000","high","2","The main experiment item","yes","","exp2.osexp","/Users/tom/github/sft-fraction/exp2","mono","mono","no","mono","no","24","no","white","no","yes","800","legacy","65","65","0","/Users/tom/github/sft-fraction/exp2/data/subject-2a.csv","legacy","#000000","high","7","Jazzy James","3.1.9","0","l","NA","space","space","space","l","NA","787","NA","115152","12630","5829","787","NA","2","legacy","1024","2","48000","-16","experiment","2","even","present","135087","135087","NA","NA","1384","135070","247732","248249","1420","116591","129239","248249","249038","NA","247712","Fraction component detection task","66","73687","66","yes","1280"
"100","100","1122.04477612","1122.04477612","#808080","no","legacy","legacy","legacy","0","uniform","1","undefined","undefined","undefined","1","a","0","0","0","66","0","0","66","66","0","0","0","66","66","0","66","Wed May  2 09:04:42 2018","#000000","high","3","The main experiment item","yes","","exp2.osexp","/Users/tom/github/sft-fraction/exp2","mono","Zapfino","no","mono","no","24","no","white","no","yes","800","legacy","66","66","0","/Users/tom/github/sft-fraction/exp2/data/subject-2a.csv","legacy","#757575","low","2","Jazzy James","3.1.9","0","a","NA","space","space","space","a","NA","1490","NA","115152","12630","5829","1490","NA","2","legacy","1024","2","48000","-16","experiment","2","even","absent","135087","135087","NA","NA","1384","135070","249124","249642","1420","116591","129239","249643","251135","NA","249103","Fraction component detection task","67","75177","67","yes","1280"
"100","100","1124.01470588","1124.01470588","#808080","no","legacy","legacy","legacy","0","uniform","1","undefined","undefined","undefined","1","a","0","0","0","67","0","0","67","67","0","0","0","67","67","0","67","Wed May  2 09:04:42 2018","#757575","low","4","The main experiment item","yes","","exp2.osexp","/Users/tom/github/sft-fraction/exp2","Zapfino","Zapfino","no","mono","no","24","no","white","no","yes","800","legacy","67","67","0","/Users/tom/github/sft-fraction/exp2/data/subject-2a.csv","legacy","#757575","low","3","Jazzy James","3.1.9","0","a","NA","space","space","space","a","NA","1256","NA","115152","12630","5829","1256","NA","2","legacy","1024","2","48000","-16","experiment","2","even","absent","135087","135087","NA","NA","1384","135070","251224","251741","1420","116591","129239","251741","253000","NA","251206","Fraction component detection task","68","76433","68","yes","1280"
"100","100","1123.44927536","1123.44927536","#808080","no","legacy","legacy","legacy","0","uniform","1","undefined","undefined","undefined","1","a","0","0","0","68","0","0","68","68","0","0","0","68","68","0","68","Wed May  2 09:04:42 2018","#757575","low","3","The main experiment item","yes","","exp2.osexp","/Users/tom/github/sft-fraction/exp2","Zapfino","mono","no","mono","no","24","no","white","no","yes","800","legacy","68","68","0","/Users/tom/github/sft-fraction/exp2/data/subject-2a.csv","legacy","#000000","high","2","Jazzy James","3.1.9","0","a","NA","space","space","space","a","NA","1085","NA","115152","12630","5829","1085","NA","2","legacy","1024","2","48000","-16","experiment","2","even","absent","135087","135087","NA","NA","1384","135070","253089","253608","1420","116591","129239","253608","254695","NA","253067","Fraction component detection task","69","77518","69","yes","1280"
"100","100","1118.91428571","1118.91428571","#808080","no","legacy","legacy","legacy","0","uniform","1","undefined","undefined","undefined","1","l","0","0","0","69","0","0","69","69","0","0","0","69","69","0","69","Wed May  2 09:04:42 2018","#757575","low","6","The main experiment item","yes","","exp2.osexp","/Users/tom/github/sft-fraction/exp2","Zapfino","mono","no","mono","no","24","no","white","no","yes","800","legacy","69","69","0","/Users/tom/github/sft-fraction/exp2/data/subject-2a.csv","legacy","#000000","high","7","Jazzy James","3.1.9","0","l","NA","space","space","space","l","NA","806","NA","115152","12630","5829","806","NA","2","legacy","1024","2","48000","-16","experiment","2","even","present","135087","135087","NA","NA","1384","135070","254777","255294","1420","116591","129239","255294","256102","NA","254761","Fraction component detection task","70","78324","70","yes","1280"
"100","100","1112.33802817","1112.33802817","#808080","no","legacy","legacy","legacy","0","uniform","1","undefined","undefined","undefined","1","l","0","0","0","70","0","0","70","70","0","0","0","70","70","0","70","Wed May  2 09:04:42 2018","#757575","low","8","The main experiment item","yes","","exp2.osexp","/Users/tom/github/sft-fraction/exp2","Zapfino","Zapfino","no","mono","no","24","no","white","no","yes","800","legacy","70","70","0","/Users/tom/github/sft-fraction/exp2/data/subject-2a.csv","legacy","#757575","low","6","Jazzy James","3.1.9","0","l","NA","space","space","space","l","NA","652","NA","115152","12630","5829","652","NA","2","legacy","1024","2","48000","-16","experiment","2","even","present","135087","135087","NA","NA","1384","135070","256191","256713","1420","116591","129239","256713","257367","NA","256175","Fraction component detection task","71","78976","71","yes","1280"
"100","100","1105.27777778","1105.27777778","#808080","no","legacy","legacy","legacy","0","uniform","1","undefined","undefined","undefined","1","l","0","0","0","71","0","0","71","71","0","0","0","71","71","0","71","Wed May  2 09:04:42 2018","#757575","low","6","The main experiment item","yes","","exp2.osexp","/Users/tom/github/sft-fraction/exp2","Zapfino","mono","no","mono","no","24","no","white","no","yes","800","legacy","71","71","0","/Users/tom/github/sft-fraction/exp2/data/subject-2a.csv","legacy","#000000","high","8","Jazzy James","3.1.9","0","l","NA","space","space","space","l","NA","604","NA","115152","12630","5829","604","NA","2","legacy","1024","2","48000","-16","experiment","2","even","present","135087","135087","NA","NA","1384","135070","257459","257977","1420","116591","129239","257977","258584","NA","257441","Fraction component detection task","72","79580","72","yes","1280"
"100","100","1099.84931507","1099.84931507","#808080","no","legacy","legacy","legacy","0","uniform","1","undefined","undefined","undefined","1","l","0","0","0","72","0","0","72","72","0","0","0","72","72","0","72","Wed May  2 09:04:42 2018","#000000","high","7","The main experiment item","yes","","exp2.osexp","/Users/tom/github/sft-fraction/exp2","mono","mono","no","mono","no","24","no","white","no","yes","800","legacy","72","72","0","/Users/tom/github/sft-fraction/exp2/data/subject-2a.csv","legacy","#000000","high","3","Jazzy James","3.1.9","0","l","NA","space","space","space","l","NA","709","NA","115152","12630","5829","709","NA","2","legacy","1024","2","48000","-16","experiment","2","even","present","135087","135087","NA","NA","1384","135070","258665","259184","1420","116591","129239","259184","259896","NA","258650","Fraction component detection task","73","80289","73","yes","1280"
"100","100","1112.37837838","1112.37837838","#808080","no","legacy","legacy","legacy","0","uniform","1","undefined","undefined","undefined","1","a","0","0","0","73","0","0","73","73","0","0","0","73","73","0","73","Wed May  2 09:04:42 2018","#000000","high","2","The main experiment item","yes","","exp2.osexp","/Users/tom/github/sft-fraction/exp2","mono","mono","no","mono","no","24","no","white","no","yes","800","legacy","73","73","0","/Users/tom/github/sft-fraction/exp2/data/subject-2a.csv","legacy","#000000","high","3","Jazzy James","3.1.9","0","a","NA","space","space","space","a","NA","2027","NA","115152","12630","5829","2027","NA","2","legacy","1024","2","48000","-16","experiment","2","even","absent","135087","135087","NA","NA","1384","135070","259977","260498","1420","116591","129239","260498","262528","NA","259961","Fraction component detection task","74","82316","74","yes","1280"
"100","100","1109.38666667","1109.38666667","#808080","no","legacy","legacy","legacy","0","uniform","1","undefined","undefined","undefined","1","a","0","0","0","74","0","0","74","74","0","0","0","74","74","0","74","Wed May  2 09:04:42 2018","#757575","low","2","The main experiment item","yes","","exp2.osexp","/Users/tom/github/sft-fraction/exp2","Zapfino","Zapfino","no","mono","no","24","no","white","no","yes","800","legacy","74","74","0","/Users/tom/github/sft-fraction/exp2/data/subject-2a.csv","legacy","#757575","low","2","Jazzy James","3.1.9","0","a","NA","space","space","space","a","NA","888","NA","115152","12630","5829","888","NA","2","legacy","1024","2","48000","-16","experiment","2","even","absent","135087","135087","NA","NA","1384","135070","262616","263133","1420","116591","129239","263133","264023","NA","262595","Fraction component detection task","75","83204","75","yes","1280"
"100","100","1103.76315789","1103.76315789","#808080","no","legacy","legacy","legacy","0","uniform","1","undefined","undefined","undefined","1","l","0","0","0","75","0","0","75","75","0","0","0","75","75","0","75","Wed May  2 09:04:42 2018","#000000","high","7","The main experiment item","yes","","exp2.osexp","/Users/tom/github/sft-fraction/exp2","mono","mono","no","mono","no","24","no","white","no","yes","800","legacy","75","75","0","/Users/tom/github/sft-fraction/exp2/data/subject-2a.csv","legacy","#000000","high","4","Jazzy James","3.1.9","0","l","NA","space","space","space","l","NA","682","NA","115152","12630","5829","682","NA","2","legacy","1024","2","48000","-16","experiment","2","even","present","135087","135087","NA","NA","1384","135070","264108","264628","1420","116591","129239","264628","265312","NA","264090","Fraction component detection task","76","83886","76","yes","1280"
"100","100","1103.97402597","1103.97402597","#808080","no","legacy","legacy","legacy","0","uniform","1","undefined","undefined","undefined","1","a","0","0","0","76","0","0","76","76","0","0","0","76","76","0","76","Wed May  2 09:04:42 2018","#757575","low","2","The main experiment item","yes","","exp2.osexp","/Users/tom/github/sft-fraction/exp2","Zapfino","Zapfino","no","mono","no","24","no","white","no","yes","800","legacy","76","76","0","/Users/tom/github/sft-fraction/exp2/data/subject-2a.csv","legacy","#757575","low","4","Jazzy James","3.1.9","0","a","NA","space","space","space","a","NA","1120","NA","115152","12630","5829","1120","NA","2","legacy","1024","2","48000","-16","experiment","2","even","absent","135087","135087","NA","NA","1384","135070","265404","265924","1420","116591","129239","265925","267047","NA","265384","Fraction component detection task","77","85006","77","yes","1280"
"100","100","1097.82051282","1097.82051282","#808080","no","legacy","legacy","legacy","0","uniform","1","undefined","undefined","undefined","1","a","0","0","0","77","0","0","77","77","0","0","0","77","77","0","77","Wed May  2 09:04:42 2018","#757575","low","2","The main experiment item","yes","","exp2.osexp","/Users/tom/github/sft-fraction/exp2","Zapfino","mono","no","mono","no","24","no","white","no","yes","800","legacy","77","77","0","/Users/tom/github/sft-fraction/exp2/data/subject-2a.csv","legacy","#000000","high","3","Jazzy James","3.1.9","0","a","NA","space","space","space","a","NA","624","NA","115152","12630","5829","624","NA","2","legacy","1024","2","48000","-16","experiment","2","even","absent","135087","135087","NA","NA","1384","135070","267130","267646","1420","116591","129239","267646","268272","NA","267114","Fraction component detection task","78","85630","78","yes","1280"
"100","100","1091.15189873","1091.15189873","#808080","no","legacy","legacy","legacy","0","uniform","1","undefined","undefined","undefined","1","a","0","0","0","78","0","0","78","78","0","0","0","78","78","0","78","Wed May  2 09:04:42 2018","#757575","low","4","The main experiment item","yes","","exp2.osexp","/Users/tom/github/sft-fraction/exp2","Zapfino","mono","no","mono","no","24","no","white","no","yes","800","legacy","78","78","0","/Users/tom/github/sft-fraction/exp2/data/subject-2a.csv","legacy","#000000","high","4","Jazzy James","3.1.9","0","a","NA","space","space","space","a","NA","571","NA","115152","12630","5829","571","NA","2","legacy","1024","2","48000","-16","experiment","2","even","absent","135087","135087","NA","NA","1384","135070","268356","268875","1420","116591","129239","268875","269448","NA","268340","Fraction component detection task","79","86201","79","yes","1280"
"100","100","1087.6875","1087.6875","#808080","no","legacy","legacy","legacy","0","uniform","1","undefined","undefined","undefined","1","l","0","0","0","79","0","0","79","79","0","0","0","79","79","0","79","Wed May  2 09:04:42 2018","#757575","low","3","The main experiment item","yes","","exp2.osexp","/Users/tom/github/sft-fraction/exp2","Zapfino","mono","no","mono","no","24","no","white","no","yes","800","legacy","79","79","0","/Users/tom/github/sft-fraction/exp2/data/subject-2a.csv","legacy","#000000","high","6","Jazzy James","3.1.9","0","l","NA","space","space","space","l","NA","814","NA","115152","12630","5829","814","NA","2","legacy","1024","2","48000","-16","experiment","2","even","present","135087","135087","NA","NA","1384","135070","269540","270056","1420","116591","129239","270056","270873","NA","269517","Fraction component detection task","80","87015","80","yes","1280"
"100","100","1087.56790123","1087.56790123","#808080","no","legacy","legacy","legacy","0","uniform","1","undefined","undefined","undefined","1","l","0","0","0","80","0","0","80","80","0","0","0","80","80","0","80","Wed May  2 09:04:42 2018","#000000","high","2","The main experiment item","yes","","exp2.osexp","/Users/tom/github/sft-fraction/exp2","mono","Zapfino","no","mono","no","24","no","white","no","yes","800","legacy","80","80","0","/Users/tom/github/sft-fraction/exp2/data/subject-2a.csv","legacy","#757575","low","8","Jazzy James","3.1.9","0","l","NA","space","space","space","l","NA","1078","NA","115152","12630","5829","1078","NA","2","legacy","1024","2","48000","-16","experiment","2","even","present","135087","135087","NA","NA","1384","135070","270955","271472","1420","116591","129239","271472","272553","NA","270940","Fraction component detection task","81","88093","81","yes","1280"
"100","100","1090.96341463","1090.96341463","#808080","no","legacy","legacy","legacy","0","uniform","1","undefined","undefined","undefined","1","a","0","0","0","81","0","0","81","81","0","0","0","81","81","0","81","Wed May  2 09:04:42 2018","#000000","high","3","The main experiment item","yes","","exp2.osexp","/Users/tom/github/sft-fraction/exp2","mono","Zapfino","no","mono","no","24","no","white","no","yes","800","legacy","81","81","0","/Users/tom/github/sft-fraction/exp2/data/subject-2a.csv","legacy","#757575","low","4","Jazzy James","3.1.9","0","a","NA","space","space","space","a","NA","1366","NA","115152","12630","5829","1366","NA","2","legacy","1024","2","48000","-16","experiment","2","even","absent","135087","135087","NA","NA","1384","135070","272643","273159","1420","116591","129239","273160","274529","NA","272623","Fraction component detection task","82","89459","82","yes","1280"
"100","100","1086.57831325","1086.57831325","#808080","no","legacy","legacy","legacy","0","uniform","1","undefined","undefined","undefined","1","a","0","0","0","82","0","0","82","82","0","0","0","82","82","0","82","Wed May  2 09:04:42 2018","#757575","low","2","The main experiment item","yes","","exp2.osexp","/Users/tom/github/sft-fraction/exp2","Zapfino","mono","no","mono","no","24","no","white","no","yes","800","legacy","82","82","0","/Users/tom/github/sft-fraction/exp2/data/subject-2a.csv","legacy","#000000","high","2","Jazzy James","3.1.9","0","a","NA","space","space","space","a","NA","727","NA","115152","12630","5829","727","NA","2","legacy","1024","2","48000","-16","experiment","2","even","absent","135087","135087","NA","NA","1384","135070","274611","275127","1420","116591","129239","275127","275857","NA","274595","Fraction component detection task","83","90186","83","yes","1280"
"100","100","1083.48809524","1083.48809524","#808080","no","legacy","legacy","legacy","0","uniform","1","undefined","undefined","undefined","1","l","0","0","0","83","0","0","83","83","0","0","0","83","83","0","83","Wed May  2 09:04:42 2018","#000000","high","6","The main experiment item","yes","","exp2.osexp","/Users/tom/github/sft-fraction/exp2","mono","Zapfino","no","mono","no","24","no","white","no","yes","800","legacy","83","83","0","/Users/tom/github/sft-fraction/exp2/data/subject-2a.csv","legacy","#757575","low","8","Jazzy James","3.1.9","0","l","NA","space","space","space","l","NA","827","NA","115152","12630","5829","827","NA","2","legacy","1024","2","48000","-16","experiment","2","even","present","135087","135087","NA","NA","1384","135070","275947","276467","1420","116591","129239","276467","277297","NA","275929","Fraction component detection task","84","91013","84","yes","1280"
"100","100","1077.81176471","1077.81176471","#808080","no","legacy","legacy","legacy","0","uniform","1","undefined","undefined","undefined","1","l","0","0","0","84","0","0","84","84","0","0","0","84","84","0","84","Wed May  2 09:04:42 2018","#757575","low","4","The main experiment item","yes","","exp2.osexp","/Users/tom/github/sft-fraction/exp2","Zapfino","Zapfino","no","mono","no","24","no","white","no","yes","800","legacy","84","84","0","/Users/tom/github/sft-fraction/exp2/data/subject-2a.csv","legacy","#757575","low","8","Jazzy James","3.1.9","0","l","NA","space","space","space","l","NA","601","NA","115152","12630","5829","601","NA","2","legacy","1024","2","48000","-16","experiment","2","even","present","135087","135087","NA","NA","1384","135070","277384","277901","1420","116591","129239","277901","278505","NA","277367","Fraction component detection task","85","91614","85","yes","1280"
"100","100","1072.87209302","1072.87209302","#808080","no","legacy","legacy","legacy","0","uniform","1","undefined","undefined","undefined","1","a","0","0","0","85","0","0","85","85","0","0","0","85","85","0","85","Wed May  2 09:04:42 2018","#000000","high","4","The main experiment item","yes","","exp2.osexp","/Users/tom/github/sft-fraction/exp2","mono","Zapfino","no","mono","no","24","no","white","no","yes","800","legacy","85","85","0","/Users/tom/github/sft-fraction/exp2/data/subject-2a.csv","legacy","#757575","low","4","Jazzy James","3.1.9","0","a","NA","space","space","space","a","NA","653","NA","115152","12630","5829","653","NA","2","legacy","1024","2","48000","-16","experiment","2","even","absent","135087","135087","NA","NA","1384","135070","278592","279113","1420","116591","129239","279114","279770","NA","278571","Fraction component detection task","86","92267","86","yes","1280"
"100","100","1067.72413793","1067.72413793","#808080","no","legacy","legacy","legacy","0","uniform","1","undefined","undefined","undefined","1","a","0","0","0","86","0","0","86","86","0","0","0","86","86","0","86","Wed May  2 09:04:42 2018","#757575","low","2","The main experiment item","yes","","exp2.osexp","/Users/tom/github/sft-fraction/exp2","Zapfino","mono","no","mono","no","24","no","white","no","yes","800","legacy","86","86","0","/Users/tom/github/sft-fraction/exp2/data/subject-2a.csv","legacy","#000000","high","3","Jazzy James","3.1.9","0","a","NA","space","space","space","a","NA","625","NA","115152","12630","5829","625","NA","2","legacy","1024","2","48000","-16","experiment","2","even","absent","135087","135087","NA","NA","1384","135070","279853","280374","1420","116591","129239","280374","281001","NA","279836","Fraction component detection task","87","92892","87","yes","1280"
"100","100","1062.5","1062.5","#808080","no","legacy","legacy","legacy","0","uniform","1","undefined","undefined","undefined","1","a","0","0","0","87","0","0","87","87","0","0","0","87","87","0","87","Wed May  2 09:04:42 2018","#000000","high","4","The main experiment item","yes","","exp2.osexp","/Users/tom/github/sft-fraction/exp2","mono","mono","no","mono","no","24","no","white","no","yes","800","legacy","87","87","0","/Users/tom/github/sft-fraction/exp2/data/subject-2a.csv","legacy","#000000","high","2","Jazzy James","3.1.9","0","a","NA","space","space","space","a","NA","608","NA","115152","12630","5829","608","NA","2","legacy","1024","2","48000","-16","experiment","2","even","absent","135087","135087","NA","NA","1384","135070","281081","281599","1420","116591","129239","281599","282209","NA","281065","Fraction component detection task","88","93500","88","yes","1280"
"100","100","1057.43820225","1057.43820225","#808080","no","legacy","legacy","legacy","0","uniform","1","undefined","undefined","undefined","1","a","0","0","0","88","0","0","88","88","0","0","0","88","88","0","88","Wed May  2 09:04:42 2018","#000000","high","4","The main experiment item","yes","","exp2.osexp","/Users/tom/github/sft-fraction/exp2","mono","Zapfino","no","mono","no","24","no","white","no","yes","800","legacy","88","88","0","/Users/tom/github/sft-fraction/exp2/data/subject-2a.csv","legacy","#757575","low","4","Jazzy James","3.1.9","0","a","NA","space","space","space","a","NA","612","NA","115152","12630","5829","612","NA","2","legacy","1024","2","48000","-16","experiment","2","even","absent","135087","135087","NA","NA","1384","135070","282301","282818","1420","116591","129239","282819","283433","NA","282282","Fraction component detection task","89","94112","89","yes","1280"
"100","100","1052.48888889","1052.48888889","#808080","no","legacy","legacy","legacy","0","uniform","1","undefined","undefined","undefined","1","l","0","0","0","89","0","0","89","89","0","0","0","89","89","0","89","Wed May  2 09:04:42 2018","#757575","low","2","The main experiment item","yes","","exp2.osexp","/Users/tom/github/sft-fraction/exp2","Zapfino","mono","no","mono","no","24","no","white","no","yes","800","legacy","89","89","0","/Users/tom/github/sft-fraction/exp2/data/subject-2a.csv","legacy","#000000","high","7","Jazzy James","3.1.9","0","l","NA","space","space","space","l","NA","612","NA","115152","12630","5829","612","NA","2","legacy","1024","2","48000","-16","experiment","2","even","present","135087","135087","NA","NA","1384","135070","283519","284035","1420","116591","129239","284035","284649","NA","283502","Fraction component detection task","90","94724","90","yes","1280"
"100","100","1050.28571429","1050.28571429","#808080","no","legacy","legacy","legacy","0","uniform","1","undefined","undefined","undefined","1","a","0","0","0","90","0","0","90","90","0","0","0","90","90","0","90","Wed May  2 09:04:42 2018","#757575","low","4","The main experiment item","yes","","exp2.osexp","/Users/tom/github/sft-fraction/exp2","Zapfino","Zapfino","no","mono","no","24","no","white","no","yes","800","legacy","90","90","0","/Users/tom/github/sft-fraction/exp2/data/subject-2a.csv","legacy","#757575","low","4","Jazzy James","3.1.9","0","a","NA","space","space","space","a","NA","852","NA","115152","12630","5829","852","NA","2","legacy","1024","2","48000","-16","experiment","2","even","absent","135087","135087","NA","NA","1384","135070","284739","285259","1420","116591","129239","285259","286114","NA","284720","Fraction component detection task","91","95576","91","yes","1280"
"100","100","1046.39130435","1046.39130435","#808080","no","legacy","legacy","legacy","0","uniform","1","undefined","undefined","undefined","1","l","0","0","0","91","0","0","91","91","0","0","0","91","91","0","91","Wed May  2 09:04:42 2018","#000000","high","8","The main experiment item","yes","","exp2.osexp","/Users/tom/github/sft-fraction/exp2","mono","Zapfino","no","mono","no","24","no","white","no","yes","800","legacy","91","91","0","/Users/tom/github/sft-fraction/exp2/data/subject-2a.csv","legacy","#757575","low","4","Jazzy James","3.1.9","0","l","NA","space","space","space","l","NA","692","NA","115152","12630","5829","692","NA","2","legacy","1024","2","48000","-16","experiment","2","even","present","135087","135087","NA","NA","1384","135070","286194","286715","1420","116591","129239","286715","287410","NA","286179","Fraction component detection task","92","96268","92","yes","1280"
"100","100","1043.24731183","1043.24731183","#808080","no","legacy","legacy","legacy","0","uniform","1","undefined","undefined","undefined","1","a","0","0","0","92","0","0","92","92","0","0","0","92","92","0","92","Wed May  2 09:04:42 2018","#757575","low","4","The main experiment item","yes","","exp2.osexp","/Users/tom/github/sft-fraction/exp2","Zapfino","mono","no","mono","no","24","no","white","no","yes","800","legacy","92","92","0","/Users/tom/github/sft-fraction/exp2/data/subject-2a.csv","legacy","#000000","high","2","Jazzy James","3.1.9","0","a","NA","space","space","space","a","NA","754","NA","115152","12630","5829","754","NA","2","legacy","1024","2","48000","-16","experiment","2","even","absent","135087","135087","NA","NA","1384","135070","287500","288021","1420","116591","129239","288021","288779","NA","287484","Fraction component detection task","93","97022","93","yes","1280"
"100","100","1038.37234043","1038.37234043","#808080","no","legacy","legacy","legacy","0","uniform","1","undefined","undefined","undefined","1","a","0","0","0","93","0","0","93","93","0","0","0","93","93","0","93","Wed May  2 09:04:42 2018","#000000","high","2","The main experiment item","yes","","exp2.osexp","/Users/tom/github/sft-fraction/exp2","mono","mono","no","mono","no","24","no","white","no","yes","800","legacy","93","93","0","/Users/tom/github/sft-fraction/exp2/data/subject-2a.csv","legacy","#000000","high","3","Jazzy James","3.1.9","0","a","NA","space","space","space","a","NA","585","NA","115152","12630","5829","585","NA","2","legacy","1024","2","48000","-16","experiment","2","even","absent","135087","135087","NA","NA","1384","135070","288869","289390","1420","116591","129239","289390","289979","NA","288851","Fraction component detection task","94","97607","94","yes","1280"
"100","100","1034.8","1034.8","#808080","no","legacy","legacy","legacy","0","uniform","1","undefined","undefined","undefined","1","l","0","0","0","94","0","0","94","94","0","0","0","94","94","0","94","Wed May  2 09:04:42 2018","#000000","high","3","The main experiment item","yes","","exp2.osexp","/Users/tom/github/sft-fraction/exp2","mono","mono","no","mono","no","24","no","white","no","yes","800","legacy","94","94","0","/Users/tom/github/sft-fraction/exp2/data/subject-2a.csv","legacy","#000000","high","8","Jazzy James","3.1.9","0","l","NA","space","space","space","l","NA","699","NA","115152","12630","5829","699","NA","2","legacy","1024","2","48000","-16","experiment","2","even","present","135087","135087","NA","NA","1384","135070","290062","290580","1420","116591","129239","290580","291283","NA","290045","Fraction component detection task","95","98306","95","yes","1280"
"100","100","1034.88541667","1034.88541667","#808080","no","legacy","legacy","legacy","0","uniform","1","undefined","undefined","undefined","1","l","0","0","0","95","0","0","95","95","0","0","0","95","95","0","95","Wed May  2 09:04:42 2018","#000000","high","3","The main experiment item","yes","","exp2.osexp","/Users/tom/github/sft-fraction/exp2","mono","mono","no","mono","no","24","no","white","no","yes","800","legacy","95","95","0","/Users/tom/github/sft-fraction/exp2/data/subject-2a.csv","legacy","#000000","high","7","Jazzy James","3.1.9","0","l","NA","space","space","space","l","NA","1043","NA","115152","12630","5829","1043","NA","2","legacy","1024","2","48000","-16","experiment","2","even","present","135087","135087","NA","NA","1384","135070","291374","291892","1420","116591","129239","291892","292938","NA","291352","Fraction component detection task","96","99349","96","yes","1280"
"100","100","1031.22680412","1031.22680412","#808080","no","legacy","legacy","legacy","0","uniform","1","undefined","undefined","undefined","1","a","0","0","0","96","0","0","96","96","0","0","0","96","96","0","96","Wed May  2 09:04:42 2018","#757575","low","3","The main experiment item","yes","","exp2.osexp","/Users/tom/github/sft-fraction/exp2","Zapfino","Zapfino","no","mono","no","24","no","white","no","yes","800","legacy","96","96","0","/Users/tom/github/sft-fraction/exp2/data/subject-2a.csv","legacy","#757575","low","2","Jazzy James","3.1.9","0","a","NA","space","space","space","a","NA","680","NA","115152","12630","5829","680","NA","2","legacy","1024","2","48000","-16","experiment","2","even","absent","135087","135087","NA","NA","1384","135070","293023","293543","1420","116591","129239","293543","294226","NA","293007","Fraction component detection task","97","100029","97","yes","1280"
"100","100","1031.55102041","1031.55102041","#808080","no","legacy","legacy","legacy","0","uniform","1","undefined","undefined","undefined","1","a","0","0","0","97","0","0","97","97","0","0","0","97","97","0","97","Wed May  2 09:04:42 2018","#000000","high","3","The main experiment item","yes","","exp2.osexp","/Users/tom/github/sft-fraction/exp2","mono","mono","no","mono","no","24","no","white","no","yes","800","legacy","97","97","0","/Users/tom/github/sft-fraction/exp2/data/subject-2a.csv","legacy","#000000","high","2","Jazzy James","3.1.9","0","a","NA","space","space","space","a","NA","1063","NA","115152","12630","5829","1063","NA","2","legacy","1024","2","48000","-16","experiment","2","even","absent","135087","135087","NA","NA","1384","135070","294307","294824","1420","116591","129239","294824","295890","NA","294290","Fraction component detection task","98","101092","98","yes","1280"
"100","100","1027.75757576","1027.75757576","#808080","no","legacy","legacy","legacy","0","uniform","1","undefined","undefined","undefined","1","a","0","0","0","98","0","0","98","98","0","0","0","98","98","0","98","Wed May  2 09:04:42 2018","#000000","high","4","The main experiment item","yes","","exp2.osexp","/Users/tom/github/sft-fraction/exp2","mono","mono","no","mono","no","24","no","white","no","yes","800","legacy","98","98","0","/Users/tom/github/sft-fraction/exp2/data/subject-2a.csv","legacy","#000000","high","2","Jazzy James","3.1.9","0","a","NA","space","space","space","a","NA","656","NA","115152","12630","5829","656","NA","2","legacy","1024","2","48000","-16","experiment","2","even","absent","135087","135087","NA","NA","1384","135070","295976","296496","1420","116591","129239","296496","297154","NA","295956","Fraction component detection task","99","101748","99","yes","1280"
"100","100","1024.26","1024.26","#808080","no","legacy","legacy","legacy","0","uniform","1","undefined","undefined","undefined","1","l","0","0","0","99","0","0","99","99","0","0","0","99","99","0","99","Wed May  2 09:04:42 2018","#000000","high","7","The main experiment item","yes","","exp2.osexp","/Users/tom/github/sft-fraction/exp2","mono","Zapfino","no","mono","no","24","no","white","no","yes","800","legacy","99","99","0","/Users/tom/github/sft-fraction/exp2/data/subject-2a.csv","legacy","#757575","low","2","Jazzy James","3.1.9","0","l","NA","space","space","space","l","NA","678","NA","115152","12630","5829","678","NA","2","legacy","1024","2","48000","-16","experiment","2","even","present","135087","135087","NA","NA","1384","135070","297245","297762","1420","116591","129239","297762","298442","NA","297226","Fraction component detection task","100","102426","100","yes","1280"
"100","100","1023.0990099","1023.0990099","#808080","no","legacy","legacy","legacy","0","uniform","1","undefined","undefined","undefined","1","l","0","0","0","100","0","0","100","100","0","0","0","100","100","0","100","Wed May  2 09:04:42 2018","#757575","low","6","The main experiment item","yes","","exp2.osexp","/Users/tom/github/sft-fraction/exp2","Zapfino","Zapfino","no","mono","no","24","no","white","no","yes","800","legacy","100","100","0","/Users/tom/github/sft-fraction/exp2/data/subject-2a.csv","legacy","#757575","low","2","Jazzy James","3.1.9","0","l","NA","space","space","space","l","NA","907","NA","115152","12630","5829","907","NA","2","legacy","1024","2","48000","-16","experiment","2","even","present","135087","135087","NA","NA","1384","135070","298527","299045","1420","116591","129239","299045","299954","NA","298511","Fraction component detection task","101","103333","101","yes","1280"
"100","100","1024.55882353","1024.55882353","#808080","no","legacy","legacy","legacy","0","uniform","1","undefined","undefined","undefined","1","l","0","0","0","101","0","0","101","101","0","0","0","101","101","0","101","Wed May  2 09:04:42 2018","#000000","high","8","The main experiment item","yes","","exp2.osexp","/Users/tom/github/sft-fraction/exp2","mono","mono","no","mono","no","24","no","white","no","yes","800","legacy","101","101","0","/Users/tom/github/sft-fraction/exp2/data/subject-2a.csv","legacy","#000000","high","2","Jazzy James","3.1.9","0","l","NA","space","space","space","l","NA","1172","NA","115152","12630","5829","1172","NA","2","legacy","1024","2","48000","-16","experiment","2","even","present","135087","135087","NA","NA","1384","135070","300043","300564","1420","116591","129239","300564","301740","NA","300020","Fraction component detection task","102","104505","102","yes","1280"
"100","100","1021.9223301","1021.9223301","#808080","no","legacy","legacy","legacy","0","uniform","1","undefined","undefined","undefined","1","a","0","0","0","102","0","0","102","102","0","0","0","102","102","0","102","Wed May  2 09:04:42 2018","#000000","high","3","The main experiment item","yes","","exp2.osexp","/Users/tom/github/sft-fraction/exp2","mono","Zapfino","no","mono","no","24","no","white","no","yes","800","legacy","102","102","0","/Users/tom/github/sft-fraction/exp2/data/subject-2a.csv","legacy","#757575","low","3","Jazzy James","3.1.9","0","a","NA","space","space","space","a","NA","753","NA","115152","12630","5829","753","NA","2","legacy","1024","2","48000","-16","experiment","2","even","absent","135087","135087","NA","NA","1384","135070","301823","302341","1420","116591","129239","302342","303098","NA","301806","Fraction component detection task","103","105258","103","yes","1280"
"100","100","1020.49038462","1020.49038462","#808080","no","legacy","legacy","legacy","0","uniform","1","undefined","undefined","undefined","1","a","0","0","0","103","0","0","103","103","0","0","0","103","103","0","103","Wed May  2 09:04:42 2018","#757575","low","3","The main experiment item","yes","","exp2.osexp","/Users/tom/github/sft-fraction/exp2","Zapfino","Zapfino","no","mono","no","24","no","white","no","yes","800","legacy","103","103","0","/Users/tom/github/sft-fraction/exp2/data/subject-2a.csv","legacy","#757575","low","2","Jazzy James","3.1.9","0","a","NA","space","space","space","a","NA","873","NA","115152","12630","5829","873","NA","2","legacy","1024","2","48000","-16","experiment","2","even","absent","135087","135087","NA","NA","1384","135070","303185","303703","1420","116591","129239","303703","304579","NA","303169","Fraction component detection task","104","106131","104","yes","1280"
"100","100","1017.34285714","1017.34285714","#808080","no","legacy","legacy","legacy","0","uniform","1","undefined","undefined","undefined","1","a","0","0","0","104","0","0","104","104","0","0","0","104","104","0","104","Wed May  2 09:04:42 2018","#000000","high","2","The main experiment item","yes","","exp2.osexp","/Users/tom/github/sft-fraction/exp2","mono","Zapfino","no","mono","no","24","no","white","no","yes","800","legacy","104","104","0","/Users/tom/github/sft-fraction/exp2/data/subject-2a.csv","legacy","#757575","low","4","Jazzy James","3.1.9","0","a","NA","space","space","space","a","NA","690","NA","115152","12630","5829","690","NA","2","legacy","1024","2","48000","-16","experiment","2","even","absent","135087","135087","NA","NA","1384","135070","304662","305181","1420","116591","129239","305182","305875","NA","304646","Fraction component detection task","105","106821","105","yes","1280"
"100","100","1014.49056604","1014.49056604","#808080","no","legacy","legacy","legacy","0","uniform","1","undefined","undefined","undefined","1","a","0","0","0","105","0","0","105","105","0","0","0","105","105","0","105","Wed May  2 09:04:42 2018","#757575","low","4","The main experiment item","yes","","exp2.osexp","/Users/tom/github/sft-fraction/exp2","Zapfino","Zapfino","no","mono","no","24","no","white","no","yes","800","legacy","105","105","0","/Users/tom/github/sft-fraction/exp2/data/subject-2a.csv","legacy","#757575","low","4","Jazzy James","3.1.9","0","a","NA","space","space","space","a","NA","715","NA","115152","12630","5829","715","NA","2","legacy","1024","2","48000","-16","experiment","2","even","absent","135087","135087","NA","NA","1384","135070","305965","306484","1420","116591","129239","306485","307204","NA","305947","Fraction component detection task","106","107536","106","yes","1280"
"100","100","1011.40186916","1011.40186916","#808080","no","legacy","legacy","legacy","0","uniform","1","undefined","undefined","undefined","1","a","0","0","0","106","0","0","106","106","0","0","0","106","106","0","106","Wed May  2 09:04:42 2018","#000000","high","2","The main experiment item","yes","","exp2.osexp","/Users/tom/github/sft-fraction/exp2","mono","Zapfino","no","mono","no","24","no","white","no","yes","800","legacy","106","106","0","/Users/tom/github/sft-fraction/exp2/data/subject-2a.csv","legacy","#757575","low","2","Jazzy James","3.1.9","0","a","NA","space","space","space","a","NA","684","NA","115152","12630","5829","684","NA","2","legacy","1024","2","48000","-16","experiment","2","even","absent","135087","135087","NA","NA","1384","135070","307294","307812","1420","116591","129239","307812","308499","NA","307275","Fraction component detection task","107","108220","107","yes","1280"
"100","100","1008.5","1008.5","#808080","no","legacy","legacy","legacy","0","uniform","1","undefined","undefined","undefined","1","a","0","0","0","107","0","0","107","107","0","0","0","107","107","0","107","Wed May  2 09:04:42 2018","#757575","low","3","The main experiment item","yes","","exp2.osexp","/Users/tom/github/sft-fraction/exp2","Zapfino","mono","no","mono","no","24","no","white","no","yes","800","legacy","107","107","0","/Users/tom/github/sft-fraction/exp2/data/subject-2a.csv","legacy","#000000","high","3","Jazzy James","3.1.9","0","a","NA","space","space","space","a","NA","698","NA","115152","12630","5829","698","NA","2","legacy","1024","2","48000","-16","experiment","2","even","absent","135087","135087","NA","NA","1384","135070","308585","309102","1420","116591","129239","309102","309803","NA","308564","Fraction component detection task","108","108918","108","yes","1280"
"100","100","1007.08256881","1007.08256881","#808080","no","legacy","legacy","legacy","0","uniform","1","undefined","undefined","undefined","1","l","0","0","0","108","0","0","108","108","0","0","0","108","108","0","108","Wed May  2 09:04:42 2018","#757575","low","8","The main experiment item","yes","","exp2.osexp","/Users/tom/github/sft-fraction/exp2","Zapfino","Zapfino","no","mono","no","24","no","white","no","yes","800","legacy","108","108","0","/Users/tom/github/sft-fraction/exp2/data/subject-2a.csv","legacy","#757575","low","4","Jazzy James","3.1.9","0","l","NA","space","space","space","l","NA","854","NA","115152","12630","5829","854","NA","2","legacy","1024","2","48000","-16","experiment","2","even","present","135087","135087","NA","NA","1384","135070","309894","310410","1420","116591","129239","310410","311267","NA","309874","Fraction component detection task","109","109772","109","yes","1280"
