"acc","accuracy","average_response_time","avg_rt","background","bidi","canvas_backend","clock_backend","color_backend","compensation","coordinates","correct","correct_instructions1","correct_instructions2","correct_instructions3","correct_keyboard_response","correct_response","count_block_loop","count_block_sequence","count_end_of_experiment","count_error","count_experiment","count_experimental_loop","count_fixation_dot","count_fraction","count_instructions1","count_instructions2","count_instructions3","count_keyboard_response","count_logger","count_rest","count_trial_sequence","datetime","denomColor","denomSalience","denominator","description","disable_garbage_collection","empty_column","experiment_file","experiment_path","fontDenom","fontNum","font_bold","font_family","font_italic","font_size","font_underline","foreground","form_clicks","fullscreen","height","keyboard_backend","live_row","live_row_block_loop","live_row_experimental_loop","logfile","mouse_backend","numColor","numSalience","numerator","opensesame_codename","opensesame_version","repeat_cycle","response","response_end_of_experiment","response_instructions1","response_instructions2","response_instructions3","response_keyboard_response","response_rest","response_time","response_time_end_of_experiment","response_time_instructions1","response_time_instructions2","response_time_instructions3","response_time_keyboard_response","response_time_rest","round_decimals","sampler_backend","sound_buf_size","sound_channels","sound_freq","sound_sample_size","start","subject_nr","subject_parity","target","time_block_loop","time_block_sequence","time_end_of_experiment","time_error","time_experiment","time_experimental_loop","time_fixation_dot","time_fraction","time_instructions1","time_instructions2","time_instructions3","time_keyboard_response","time_logger","time_rest","time_trial_sequence","title","total_correct","total_response_time","total_responses","uniform_coordinates","width"
"100","100","1136","1136","#808080","no","legacy","legacy","legacy","0","uniform","1","undefined","undefined","undefined","1","l","0","0","0","0","0","0","0","0","0","0","0","0","0","0","0","Thu May  3 10:05:57 2018","#757575","low","8","The main experiment item","yes","","exp2.osexp","/Users/tom/github/sft-fraction/exp2","Zapfino","mono","no","mono","no","24","no","white","no","yes","800","legacy","0","0","0","/Users/tom/github/sft-fraction/exp2/data/subject-2b.csv","legacy","#000000","high","8","Jazzy James","3.1.9","0","l","NA","space","space","space","l","NA","1136","NA","61835","6558","21448","1136","NA","2","legacy","1024","2","48000","-16","experiment","2","even","present","91297","91297","NA","NA","1373","91280","91603","92119","1401","63255","69831","92119","93264","NA","91581","Fraction component detection task","1","1136","1","yes","1280"
"100","100","882","882","#808080","no","legacy","legacy","legacy","0","uniform","1","undefined","undefined","undefined","1","l","0","0","0","1","0","0","1","1","0","0","0","1","1","0","1","Thu May  3 10:05:57 2018","#757575","low","8","The main experiment item","yes","","exp2.osexp","/Users/tom/github/sft-fraction/exp2","Zapfino","mono","no","mono","no","24","no","white","no","yes","800","legacy","1","1","0","/Users/tom/github/sft-fraction/exp2/data/subject-2b.csv","legacy","#000000","high","6","Jazzy James","3.1.9","0","l","NA","space","space","space","l","NA","628","NA","61835","6558","21448","628","NA","2","legacy","1024","2","48000","-16","experiment","2","even","present","91297","91297","NA","NA","1373","91280","93373","93890","1401","63255","69831","93891","94522","NA","93355","Fraction component detection task","2","1764","2","yes","1280"
"100","100","839.333333333","839.333333333","#808080","no","legacy","legacy","legacy","0","uniform","1","undefined","undefined","undefined","1","a","0","0","0","2","0","0","2","2","0","0","0","2","2","0","2","Thu May  3 10:05:57 2018","#757575","low","4","The main experiment item","yes","","exp2.osexp","/Users/tom/github/sft-fraction/exp2","Zapfino","Zapfino","no","mono","no","24","no","white","no","yes","800","legacy","2","2","0","/Users/tom/github/sft-fraction/exp2/data/subject-2b.csv","legacy","#757575","low","2","Jazzy James","3.1.9","0","a","NA","space","space","space","a","NA","754","NA","61835","6558","21448","754","NA","2","legacy","1024","2","48000","-16","experiment","2","even","absent","91297","91297","NA","NA","1373","91280","94617","95133","1401","63255","69831","95133","95888","NA","94598","Fraction component detection task","3","2518","3","yes","1280"
"100","100","772.5","772.5","#808080","no","legacy","legacy","legacy","0","uniform","1","undefined","undefined","undefined","1","a","0","0","0","3","0","0","3","3","0","0","0","3","3","0","3","Thu May  3 10:05:57 2018","#000000","high","2","The main experiment item","yes","","exp2.osexp","/Users/tom/github/sft-fraction/exp2","mono","mono","no","mono","no","24","no","white","no","yes","800","legacy","3","3","0","/Users/tom/github/sft-fraction/exp2/data/subject-2b.csv","legacy","#000000","high","4","Jazzy James","3.1.9","0","a","NA","space","space","space","a","NA","572","NA","61835","6558","21448","572","NA","2","legacy","1024","2","48000","-16","experiment","2","even","absent","91297","91297","NA","NA","1373","91280","95966","96482","1401","63255","69831","96482","97055","NA","95951","Fraction component detection task","4","3090","4","yes","1280"
"100","100","743.6","743.6","#808080","no","legacy","legacy","legacy","0","uniform","1","undefined","undefined","undefined","1","a","0","0","0","4","0","0","4","4","0","0","0","4","4","0","4","Thu May  3 10:05:57 2018","#000000","high","4","The main experiment item","yes","","exp2.osexp","/Users/tom/github/sft-fraction/exp2","mono","Zapfino","no","mono","no","24","no","white","no","yes","800","legacy","4","4","0","/Users/tom/github/sft-fraction/exp2/data/subject-2b.csv","legacy","#757575","low","3","Jazzy James","3.1.9","0","a","NA","space","space","space","a","NA","628","NA","61835","6558","21448","628","NA","2","legacy","1024","2","48000","-16","experiment","2","even","absent","91297","91297","NA","NA","1373","91280","97140","97658","1401","63255","69831","97659","98289","NA","97120","Fraction component detection task","5","3718","5","yes","1280"
"100","100","711.666666667","711.666666667","#808080","no","legacy","legacy","legacy","0","uniform","1","undefined","undefined","undefined","1","l","0","0","0","5","0","0","5","5","0","0","0","5","5","0","5","Thu May  3 10:05:57 2018","#757575","low","8","The main experiment item","yes","","exp2.osexp","/Users/tom/github/sft-fraction/exp2","Zapfino","Zapfino","no","mono","no","24","no","white","no","yes","800","legacy","5","5","0","/Users/tom/github/sft-fraction/exp2/data/subject-2b.csv","legacy","#757575","low","7","Jazzy James","3.1.9","0","l","NA","space","space","space","l","NA","552","NA","61835","6558","21448","552","NA","2","legacy","1024","2","48000","-16","experiment","2","even","present","91297","91297","NA","NA","1373","91280","98371","98887","1401","63255","69831","98887","99441","NA","98356","Fraction component detection task","6","4270","6","yes","1280"
"100","100","698.142857143","698.142857143","#808080","no","legacy","legacy","legacy","0","uniform","1","undefined","undefined","undefined","1","l","0","0","0","6","0","0","6","6","0","0","0","6","6","0","6","Thu May  3 10:05:57 2018","#757575","low","8","The main experiment item","yes","","exp2.osexp","/Users/tom/github/sft-fraction/exp2","Zapfino","Zapfino","no","mono","no","24","no","white","no","yes","800","legacy","6","6","0","/Users/tom/github/sft-fraction/exp2/data/subject-2b.csv","legacy","#757575","low","3","Jazzy James","3.1.9","0","l","NA","space","space","space","l","NA","617","NA","61835","6558","21448","617","NA","2","legacy","1024","2","48000","-16","experiment","2","even","present","91297","91297","NA","NA","1373","91280","99526","100046","1401","63255","69831","100046","100665","NA","99512","Fraction component detection task","7","4887","7","yes","1280"
"100","100","683","683","#808080","no","legacy","legacy","legacy","0","uniform","1","undefined","undefined","undefined","1","l","0","0","0","7","0","0","7","7","0","0","0","7","7","0","7","Thu May  3 10:05:57 2018","#000000","high","7","The main experiment item","yes","","exp2.osexp","/Users/tom/github/sft-fraction/exp2","mono","Zapfino","no","mono","no","24","no","white","no","yes","800","legacy","7","7","0","/Users/tom/github/sft-fraction/exp2/data/subject-2b.csv","legacy","#757575","low","4","Jazzy James","3.1.9","0","l","NA","space","space","space","l","NA","577","NA","61835","6558","21448","577","NA","2","legacy","1024","2","48000","-16","experiment","2","even","present","91297","91297","NA","NA","1373","91280","100753","101270","1401","63255","69831","101270","101849","NA","100733","Fraction component detection task","8","5464","8","yes","1280"
"100","100","668.333333333","668.333333333","#808080","no","legacy","legacy","legacy","0","uniform","1","undefined","undefined","undefined","1","a","0","0","0","8","0","0","8","8","0","0","0","8","8","0","8","Thu May  3 10:05:57 2018","#000000","high","2","The main experiment item","yes","","exp2.osexp","/Users/tom/github/sft-fraction/exp2","mono","mono","no","mono","no","24","no","white","no","yes","800","legacy","8","8","0","/Users/tom/github/sft-fraction/exp2/data/subject-2b.csv","legacy","#000000","high","2","Jazzy James","3.1.9","0","a","NA","space","space","space","a","NA","551","NA","61835","6558","21448","551","NA","2","legacy","1024","2","48000","-16","experiment","2","even","absent","91297","91297","NA","NA","1373","91280","101930","102447","1401","63255","69831","102448","103000","NA","101911","Fraction component detection task","9","6015","9","yes","1280"
"100","100","664.1","664.1","#808080","no","legacy","legacy","legacy","0","uniform","1","undefined","undefined","undefined","1","a","0","0","0","9","0","0","9","9","0","0","0","9","9","0","9","Thu May  3 10:05:57 2018","#757575","low","4","The main experiment item","yes","","exp2.osexp","/Users/tom/github/sft-fraction/exp2","Zapfino","mono","no","mono","no","24","no","white","no","yes","800","legacy","9","9","0","/Users/tom/github/sft-fraction/exp2/data/subject-2b.csv","legacy","#000000","high","3","Jazzy James","3.1.9","0","a","NA","space","space","space","a","NA","626","NA","61835","6558","21448","626","NA","2","legacy","1024","2","48000","-16","experiment","2","even","absent","91297","91297","NA","NA","1373","91280","103079","103596","1401","63255","69831","103596","104224","NA","103064","Fraction component detection task","10","6641","10","yes","1280"
"100","100","690.818181818","690.818181818","#808080","no","legacy","legacy","legacy","0","uniform","1","undefined","undefined","undefined","1","a","0","0","0","10","0","0","10","10","0","0","0","10","10","0","10","Thu May  3 10:05:57 2018","#757575","low","2","The main experiment item","yes","","exp2.osexp","/Users/tom/github/sft-fraction/exp2","Zapfino","mono","no","mono","no","24","no","white","no","yes","800","legacy","10","10","0","/Users/tom/github/sft-fraction/exp2/data/subject-2b.csv","legacy","#000000","high","3","Jazzy James","3.1.9","0","a","NA","space","space","space","a","NA","958","NA","61835","6558","21448","958","NA","2","legacy","1024","2","48000","-16","experiment","2","even","absent","91297","91297","NA","NA","1373","91280","104309","104825","1401","63255","69831","104825","105785","NA","104289","Fraction component detection task","11","7599","11","yes","1280"
"100","100","675.75","675.75","#808080","no","legacy","legacy","legacy","0","uniform","1","undefined","undefined","undefined","1","a","0","0","0","11","0","0","11","11","0","0","0","11","11","0","11","Thu May  3 10:05:57 2018","#000000","high","2","The main experiment item","yes","","exp2.osexp","/Users/tom/github/sft-fraction/exp2","mono","mono","no","mono","no","24","no","white","no","yes","800","legacy","11","11","0","/Users/tom/github/sft-fraction/exp2/data/subject-2b.csv","legacy","#000000","high","3","Jazzy James","3.1.9","0","a","NA","space","space","space","a","NA","510","NA","61835","6558","21448","510","NA","2","legacy","1024","2","48000","-16","experiment","2","even","absent","91297","91297","NA","NA","1373","91280","105869","106385","1401","63255","69831","106385","106897","NA","105849","Fraction component detection task","12","8109","12","yes","1280"
"100","100","665.615384615","665.615384615","#808080","no","legacy","legacy","legacy","0","uniform","1","undefined","undefined","undefined","1","a","0","0","0","12","0","0","12","12","0","0","0","12","12","0","12","Thu May  3 10:05:57 2018","#757575","low","4","The main experiment item","yes","","exp2.osexp","/Users/tom/github/sft-fraction/exp2","Zapfino","Zapfino","no","mono","no","24","no","white","no","yes","800","legacy","12","12","0","/Users/tom/github/sft-fraction/exp2/data/subject-2b.csv","legacy","#757575","low","2","Jazzy James","3.1.9","0","a","NA","space","space","space","a","NA","544","NA","61835","6558","21448","544","NA","2","legacy","1024","2","48000","-16","experiment","2","even","absent","91297","91297","NA","NA","1373","91280","106978","107494","1401","63255","69831","107494","108040","NA","106963","Fraction component detection task","13","8653","13","yes","1280"
"100","100","653.357142857","653.357142857","#808080","no","legacy","legacy","legacy","0","uniform","1","undefined","undefined","undefined","1","l","0","0","0","13","0","0","13","13","0","0","0","13","13","0","13","Thu May  3 10:05:57 2018","#000000","high","2","The main experiment item","yes","","exp2.osexp","/Users/tom/github/sft-fraction/exp2","mono","mono","no","mono","no","24","no","white","no","yes","800","legacy","13","13","0","/Users/tom/github/sft-fraction/exp2/data/subject-2b.csv","legacy","#000000","high","8","Jazzy James","3.1.9","0","l","NA","space","space","space","l","NA","494","NA","61835","6558","21448","494","NA","2","legacy","1024","2","48000","-16","experiment","2","even","present","91297","91297","NA","NA","1373","91280","108124","108641","1401","63255","69831","108641","109136","NA","108104","Fraction component detection task","14","9147","14","yes","1280"
"100","100","647.733333333","647.733333333","#808080","no","legacy","legacy","legacy","0","uniform","1","undefined","undefined","undefined","1","l","0","0","0","14","0","0","14","14","0","0","0","14","14","0","14","Thu May  3 10:05:57 2018","#000000","high","7","The main experiment item","yes","","exp2.osexp","/Users/tom/github/sft-fraction/exp2","mono","mono","no","mono","no","24","no","white","no","yes","800","legacy","14","14","0","/Users/tom/github/sft-fraction/exp2/data/subject-2b.csv","legacy","#000000","high","6","Jazzy James","3.1.9","0","l","NA","space","space","space","l","NA","569","NA","61835","6558","21448","569","NA","2","legacy","1024","2","48000","-16","experiment","2","even","present","91297","91297","NA","NA","1373","91280","109219","109735","1401","63255","69831","109735","110305","NA","109199","Fraction component detection task","15","9716","15","yes","1280"
"100","100","645.1875","645.1875","#808080","no","legacy","legacy","legacy","0","uniform","1","undefined","undefined","undefined","1","l","0","0","0","15","0","0","15","15","0","0","0","15","15","0","15","Thu May  3 10:05:57 2018","#757575","low","6","The main experiment item","yes","","exp2.osexp","/Users/tom/github/sft-fraction/exp2","Zapfino","mono","no","mono","no","24","no","white","no","yes","800","legacy","15","15","0","/Users/tom/github/sft-fraction/exp2/data/subject-2b.csv","legacy","#000000","high","2","Jazzy James","3.1.9","0","l","NA","space","space","space","l","NA","607","NA","61835","6558","21448","607","NA","2","legacy","1024","2","48000","-16","experiment","2","even","present","91297","91297","NA","NA","1373","91280","110389","110905","1401","63255","69831","110905","111515","NA","110369","Fraction component detection task","16","10323","16","yes","1280"
"100","100","640.117647059","640.117647059","#808080","no","legacy","legacy","legacy","0","uniform","1","undefined","undefined","undefined","1","l","0","0","0","16","0","0","16","16","0","0","0","16","16","0","16","Thu May  3 10:05:57 2018","#757575","low","7","The main experiment item","yes","","exp2.osexp","/Users/tom/github/sft-fraction/exp2","Zapfino","mono","no","mono","no","24","no","white","no","yes","800","legacy","16","16","0","/Users/tom/github/sft-fraction/exp2/data/subject-2b.csv","legacy","#000000","high","8","Jazzy James","3.1.9","0","l","NA","space","space","space","l","NA","559","NA","61835","6558","21448","559","NA","2","legacy","1024","2","48000","-16","experiment","2","even","present","91297","91297","NA","NA","1373","91280","111597","112113","1401","63255","69831","112113","112674","NA","111581","Fraction component detection task","17","10882","17","yes","1280"
"100","100","634.888888889","634.888888889","#808080","no","legacy","legacy","legacy","0","uniform","1","undefined","undefined","undefined","1","a","0","0","0","17","0","0","17","17","0","0","0","17","17","0","17","Thu May  3 10:05:57 2018","#757575","low","2","The main experiment item","yes","","exp2.osexp","/Users/tom/github/sft-fraction/exp2","Zapfino","mono","no","mono","no","24","no","white","no","yes","800","legacy","17","17","0","/Users/tom/github/sft-fraction/exp2/data/subject-2b.csv","legacy","#000000","high","3","Jazzy James","3.1.9","0","a","NA","space","space","space","a","NA","546","NA","61835","6558","21448","546","NA","2","legacy","1024","2","48000","-16","experiment","2","even","absent","91297","91297","NA","NA","1373","91280","112760","113278","1401","63255","69831","113278","113825","NA","112742","Fraction component detection task","18","11428","18","yes","1280"
"100","100","632.315789474","632.315789474","#808080","no","legacy","legacy","legacy","0","uniform","1","undefined","undefined","undefined","1","a","0","0","0","18","0","0","18","18","0","0","0","18","18","0","18","Thu May  3 10:05:57 2018","#000000","high","4","The main experiment item","yes","","exp2.osexp","/Users/tom/github/sft-fraction/exp2","mono","Zapfino","no","mono","no","24","no","white","no","yes","800","legacy","18","18","0","/Users/tom/github/sft-fraction/exp2/data/subject-2b.csv","legacy","#757575","low","2","Jazzy James","3.1.9","0","a","NA","space","space","space","a","NA","586","NA","61835","6558","21448","586","NA","2","legacy","1024","2","48000","-16","experiment","2","even","absent","91297","91297","NA","NA","1373","91280","113904","114421","1401","63255","69831","114421","115009","NA","113889","Fraction component detection task","19","12014","19","yes","1280"
"100","100","627.9","627.9","#808080","no","legacy","legacy","legacy","0","uniform","1","undefined","undefined","undefined","1","a","0","0","0","19","0","0","19","19","0","0","0","19","19","0","19","Thu May  3 10:05:57 2018","#757575","low","2","The main experiment item","yes","","exp2.osexp","/Users/tom/github/sft-fraction/exp2","Zapfino","mono","no","mono","no","24","no","white","no","yes","800","legacy","19","19","0","/Users/tom/github/sft-fraction/exp2/data/subject-2b.csv","legacy","#000000","high","2","Jazzy James","3.1.9","0","a","NA","space","space","space","a","NA","544","NA","61835","6558","21448","544","NA","2","legacy","1024","2","48000","-16","experiment","2","even","absent","91297","91297","NA","NA","1373","91280","115090","115607","1401","63255","69831","115607","116153","NA","115076","Fraction component detection task","20","12558","20","yes","1280"
"100","100","624.047619048","624.047619048","#808080","no","legacy","legacy","legacy","0","uniform","1","undefined","undefined","undefined","1","a","0","0","0","20","0","0","20","20","0","0","0","20","20","0","20","Thu May  3 10:05:57 2018","#000000","high","4","The main experiment item","yes","","exp2.osexp","/Users/tom/github/sft-fraction/exp2","mono","Zapfino","no","mono","no","24","no","white","no","yes","800","legacy","20","20","0","/Users/tom/github/sft-fraction/exp2/data/subject-2b.csv","legacy","#757575","low","4","Jazzy James","3.1.9","0","a","NA","space","space","space","a","NA","547","NA","61835","6558","21448","547","NA","2","legacy","1024","2","48000","-16","experiment","2","even","absent","91297","91297","NA","NA","1373","91280","116241","116757","1401","63255","69831","116757","117306","NA","116221","Fraction component detection task","21","13105","21","yes","1280"
"100","100","623.863636364","623.863636364","#808080","no","legacy","legacy","legacy","0","uniform","1","undefined","undefined","undefined","1","l","0","0","0","21","0","0","21","21","0","0","0","21","21","0","21","Thu May  3 10:05:57 2018","#757575","low","6","The main experiment item","yes","","exp2.osexp","/Users/tom/github/sft-fraction/exp2","Zapfino","Zapfino","no","mono","no","24","no","white","no","yes","800","legacy","21","21","0","/Users/tom/github/sft-fraction/exp2/data/subject-2b.csv","legacy","#757575","low","3","Jazzy James","3.1.9","0","l","NA","space","space","space","l","NA","620","NA","61835","6558","21448","620","NA","2","legacy","1024","2","48000","-16","experiment","2","even","present","91297","91297","NA","NA","1373","91280","117389","117908","1401","63255","69831","117908","118530","NA","117370","Fraction component detection task","22","13725","22","yes","1280"
"100","100","633.391304348","633.391304348","#808080","no","legacy","legacy","legacy","0","uniform","1","undefined","undefined","undefined","1","a","0","0","0","22","0","0","22","22","0","0","0","22","22","0","22","Thu May  3 10:05:57 2018","#000000","high","3","The main experiment item","yes","","exp2.osexp","/Users/tom/github/sft-fraction/exp2","mono","mono","no","mono","no","24","no","white","no","yes","800","legacy","22","22","0","/Users/tom/github/sft-fraction/exp2/data/subject-2b.csv","legacy","#000000","high","4","Jazzy James","3.1.9","0","a","NA","space","space","space","a","NA","843","NA","61835","6558","21448","843","NA","2","legacy","1024","2","48000","-16","experiment","2","even","absent","91297","91297","NA","NA","1373","91280","118614","119133","1401","63255","69831","119133","119978","NA","118597","Fraction component detection task","23","14568","23","yes","1280"
"100","100","633.375","633.375","#808080","no","legacy","legacy","legacy","0","uniform","1","undefined","undefined","undefined","1","a","0","0","0","23","0","0","23","23","0","0","0","23","23","0","23","Thu May  3 10:05:57 2018","#757575","low","2","The main experiment item","yes","","exp2.osexp","/Users/tom/github/sft-fraction/exp2","Zapfino","mono","no","mono","no","24","no","white","no","yes","800","legacy","23","23","0","/Users/tom/github/sft-fraction/exp2/data/subject-2b.csv","legacy","#000000","high","3","Jazzy James","3.1.9","0","a","NA","space","space","space","a","NA","633","NA","61835","6558","21448","633","NA","2","legacy","1024","2","48000","-16","experiment","2","even","absent","91297","91297","NA","NA","1373","91280","120057","120574","1401","63255","69831","120574","121209","NA","120042","Fraction component detection task","24","15201","24","yes","1280"
"100","100","631.44","631.44","#808080","no","legacy","legacy","legacy","0","uniform","1","undefined","undefined","undefined","1","a","0","0","0","24","0","0","24","24","0","0","0","24","24","0","24","Thu May  3 10:05:57 2018","#757575","low","3","The main experiment item","yes","","exp2.osexp","/Users/tom/github/sft-fraction/exp2","Zapfino","mono","no","mono","no","24","no","white","no","yes","800","legacy","24","24","0","/Users/tom/github/sft-fraction/exp2/data/subject-2b.csv","legacy","#000000","high","3","Jazzy James","3.1.9","0","a","NA","space","space","space","a","NA","585","NA","61835","6558","21448","585","NA","2","legacy","1024","2","48000","-16","experiment","2","even","absent","91297","91297","NA","NA","1373","91280","121288","121806","1401","63255","69831","121807","122394","NA","121273","Fraction component detection task","25","15786","25","yes","1280"
"100","100","630.538461538","630.538461538","#808080","no","legacy","legacy","legacy","0","uniform","1","undefined","undefined","undefined","1","l","0","0","0","25","0","0","25","25","0","0","0","25","25","0","25","Thu May  3 10:05:57 2018","#000000","high","6","The main experiment item","yes","","exp2.osexp","/Users/tom/github/sft-fraction/exp2","mono","mono","no","mono","no","24","no","white","no","yes","800","legacy","25","25","0","/Users/tom/github/sft-fraction/exp2/data/subject-2b.csv","legacy","#000000","high","7","Jazzy James","3.1.9","0","l","NA","space","space","space","l","NA","608","NA","61835","6558","21448","608","NA","2","legacy","1024","2","48000","-16","experiment","2","even","present","91297","91297","NA","NA","1373","91280","122485","123001","1401","63255","69831","123001","123612","NA","122464","Fraction component detection task","26","16394","26","yes","1280"
"100","100","629.444444444","629.444444444","#808080","no","legacy","legacy","legacy","0","uniform","1","undefined","undefined","undefined","1","l","0","0","0","26","0","0","26","26","0","0","0","26","26","0","26","Thu May  3 10:05:57 2018","#757575","low","3","The main experiment item","yes","","exp2.osexp","/Users/tom/github/sft-fraction/exp2","Zapfino","mono","no","mono","no","24","no","white","no","yes","800","legacy","26","26","0","/Users/tom/github/sft-fraction/exp2/data/subject-2b.csv","legacy","#000000","high","8","Jazzy James","3.1.9","0","l","NA","space","space","space","l","NA","601","NA","61835","6558","21448","601","NA","2","legacy","1024","2","48000","-16","experiment","2","even","present","91297","91297","NA","NA","1373","91280","123699","124215","1401","63255","69831","124215","124818","NA","123681","Fraction component detection task","27","16995","27","yes","1280"
"100","100","631.321428571","631.321428571","#808080","no","legacy","legacy","legacy","0","uniform","1","undefined","undefined","undefined","1","a","0","0","0","27","0","0","27","27","0","0","0","27","27","0","27","Thu May  3 10:05:57 2018","#000000","high","3","The main experiment item","yes","","exp2.osexp","/Users/tom/github/sft-fraction/exp2","mono","Zapfino","no","mono","no","24","no","white","no","yes","800","legacy","27","27","0","/Users/tom/github/sft-fraction/exp2/data/subject-2b.csv","legacy","#757575","low","3","Jazzy James","3.1.9","0","a","NA","space","space","space","a","NA","682","NA","61835","6558","21448","682","NA","2","legacy","1024","2","48000","-16","experiment","2","even","absent","91297","91297","NA","NA","1373","91280","124904","125421","1401","63255","69831","125421","126105","NA","124884","Fraction component detection task","28","17677","28","yes","1280"
"100","100","636.896551724","636.896551724","#808080","no","legacy","legacy","legacy","0","uniform","1","undefined","undefined","undefined","1","l","0","0","0","28","0","0","28","28","0","0","0","28","28","0","28","Thu May  3 10:05:57 2018","#757575","low","3","The main experiment item","yes","","exp2.osexp","/Users/tom/github/sft-fraction/exp2","Zapfino","mono","no","mono","no","24","no","white","no","yes","800","legacy","28","28","0","/Users/tom/github/sft-fraction/exp2/data/subject-2b.csv","legacy","#000000","high","6","Jazzy James","3.1.9","0","l","NA","space","space","space","l","NA","793","NA","61835","6558","21448","793","NA","2","legacy","1024","2","48000","-16","experiment","2","even","present","91297","91297","NA","NA","1373","91280","126194","126710","1401","63255","69831","126711","127506","NA","126174","Fraction component detection task","29","18470","29","yes","1280"
"100","100","636.2","636.2","#808080","no","legacy","legacy","legacy","0","uniform","1","undefined","undefined","undefined","1","l","0","0","0","29","0","0","29","29","0","0","0","29","29","0","29","Thu May  3 10:05:57 2018","#757575","low","8","The main experiment item","yes","","exp2.osexp","/Users/tom/github/sft-fraction/exp2","Zapfino","mono","no","mono","no","24","no","white","no","yes","800","legacy","29","29","0","/Users/tom/github/sft-fraction/exp2/data/subject-2b.csv","legacy","#000000","high","4","Jazzy James","3.1.9","0","l","NA","space","space","space","l","NA","616","NA","61835","6558","21448","616","NA","2","legacy","1024","2","48000","-16","experiment","2","even","present","91297","91297","NA","NA","1373","91280","127589","128105","1401","63255","69831","128105","128722","NA","127572","Fraction component detection task","30","19086","30","yes","1280"
"100","100","635.290322581","635.290322581","#808080","no","legacy","legacy","legacy","0","uniform","1","undefined","undefined","undefined","1","l","0","0","0","30","0","0","30","30","0","0","0","30","30","0","30","Thu May  3 10:05:57 2018","#757575","low","7","The main experiment item","yes","","exp2.osexp","/Users/tom/github/sft-fraction/exp2","Zapfino","Zapfino","no","mono","no","24","no","white","no","yes","800","legacy","30","30","0","/Users/tom/github/sft-fraction/exp2/data/subject-2b.csv","legacy","#757575","low","3","Jazzy James","3.1.9","0","l","NA","space","space","space","l","NA","608","NA","61835","6558","21448","608","NA","2","legacy","1024","2","48000","-16","experiment","2","even","present","91297","91297","NA","NA","1373","91280","128805","129321","1401","63255","69831","129321","129930","NA","128790","Fraction component detection task","31","19694","31","yes","1280"
"100","100","632.78125","632.78125","#808080","no","legacy","legacy","legacy","0","uniform","1","undefined","undefined","undefined","1","a","0","0","0","31","0","0","31","31","0","0","0","31","31","0","31","Thu May  3 10:05:57 2018","#757575","low","2","The main experiment item","yes","","exp2.osexp","/Users/tom/github/sft-fraction/exp2","Zapfino","mono","no","mono","no","24","no","white","no","yes","800","legacy","31","31","0","/Users/tom/github/sft-fraction/exp2/data/subject-2b.csv","legacy","#000000","high","4","Jazzy James","3.1.9","0","a","NA","space","space","space","a","NA","555","NA","61835","6558","21448","555","NA","2","legacy","1024","2","48000","-16","experiment","2","even","absent","91297","91297","NA","NA","1373","91280","130016","130533","1401","63255","69831","130533","131089","NA","129997","Fraction component detection task","32","20249","32","yes","1280"
"100","100","635.545454545","635.545454545","#808080","no","legacy","legacy","legacy","0","uniform","1","undefined","undefined","undefined","1","l","0","0","0","32","0","0","32","32","0","0","0","32","32","0","32","Thu May  3 10:05:57 2018","#000000","high","8","The main experiment item","yes","","exp2.osexp","/Users/tom/github/sft-fraction/exp2","mono","Zapfino","no","mono","no","24","no","white","no","yes","800","legacy","32","32","0","/Users/tom/github/sft-fraction/exp2/data/subject-2b.csv","legacy","#757575","low","4","Jazzy James","3.1.9","0","l","NA","space","space","space","l","NA","724","NA","61835","6558","21448","724","NA","2","legacy","1024","2","48000","-16","experiment","2","even","present","91297","91297","NA","NA","1373","91280","131173","131693","1401","63255","69831","131693","132419","NA","131153","Fraction component detection task","33","20973","33","yes","1280"
"100","100","634.764705882","634.764705882","#808080","no","legacy","legacy","legacy","0","uniform","1","undefined","undefined","undefined","1","a","0","0","0","33","0","0","33","33","0","0","0","33","33","0","33","Thu May  3 10:05:57 2018","#757575","low","3","The main experiment item","yes","","exp2.osexp","/Users/tom/github/sft-fraction/exp2","Zapfino","Zapfino","no","mono","no","24","no","white","no","yes","800","legacy","33","33","0","/Users/tom/github/sft-fraction/exp2/data/subject-2b.csv","legacy","#757575","low","2","Jazzy James","3.1.9","0","a","NA","space","space","space","a","NA","609","NA","61835","6558","21448","609","NA","2","legacy","1024","2","48000","-16","experiment","2","even","absent","91297","91297","NA","NA","1373","91280","132505","133024","1401","63255","69831","133024","133635","NA","132488","Fraction component detection task","34","21582","34","yes","1280"
"100","100","631.571428571","631.571428571","#808080","no","legacy","legacy","legacy","0","uniform","1","undefined","undefined","undefined","1","a","0","0","0","34","0","0","34","34","0","0","0","34","34","0","34","Thu May  3 10:05:57 2018","#000000","high","4","The main experiment item","yes","","exp2.osexp","/Users/tom/github/sft-fraction/exp2","mono","mono","no","mono","no","24","no","white","no","yes","800","legacy","34","34","0","/Users/tom/github/sft-fraction/exp2/data/subject-2b.csv","legacy","#000000","high","3","Jazzy James","3.1.9","0","a","NA","space","space","space","a","NA","523","NA","61835","6558","21448","523","NA","2","legacy","1024","2","48000","-16","experiment","2","even","absent","91297","91297","NA","NA","1373","91280","133714","134230","1401","63255","69831","134230","134755","NA","133699","Fraction component detection task","35","22105","35","yes","1280"
"100","100","631.472222222","631.472222222","#808080","no","legacy","legacy","legacy","0","uniform","1","undefined","undefined","undefined","1","a","0","0","0","35","0","0","35","35","0","0","0","35","35","0","35","Thu May  3 10:05:57 2018","#000000","high","3","The main experiment item","yes","","exp2.osexp","/Users/tom/github/sft-fraction/exp2","mono","Zapfino","no","mono","no","24","no","white","no","yes","800","legacy","35","35","0","/Users/tom/github/sft-fraction/exp2/data/subject-2b.csv","legacy","#757575","low","4","Jazzy James","3.1.9","0","a","NA","space","space","space","a","NA","628","NA","61835","6558","21448","628","NA","2","legacy","1024","2","48000","-16","experiment","2","even","absent","91297","91297","NA","NA","1373","91280","134839","135356","1401","63255","69831","135357","135987","NA","134820","Fraction component detection task","36","22733","36","yes","1280"
"100","100","629.081081081","629.081081081","#808080","no","legacy","legacy","legacy","0","uniform","1","undefined","undefined","undefined","1","a","0","0","0","36","0","0","36","36","0","0","0","36","36","0","36","Thu May  3 10:05:57 2018","#757575","low","2","The main experiment item","yes","","exp2.osexp","/Users/tom/github/sft-fraction/exp2","Zapfino","mono","no","mono","no","24","no","white","no","yes","800","legacy","36","36","0","/Users/tom/github/sft-fraction/exp2/data/subject-2b.csv","legacy","#000000","high","2","Jazzy James","3.1.9","0","a","NA","space","space","space","a","NA","543","NA","61835","6558","21448","543","NA","2","legacy","1024","2","48000","-16","experiment","2","even","absent","91297","91297","NA","NA","1373","91280","136069","136585","1401","63255","69831","136585","137131","NA","136048","Fraction component detection task","37","23276","37","yes","1280"
"100","100","623.421052632","623.421052632","#808080","no","legacy","legacy","legacy","0","uniform","1","undefined","undefined","undefined","1","a","0","0","0","37","0","0","37","37","0","0","0","37","37","0","37","Thu May  3 10:05:57 2018","#000000","high","4","The main experiment item","yes","","exp2.osexp","/Users/tom/github/sft-fraction/exp2","mono","mono","no","mono","no","24","no","white","no","yes","800","legacy","37","37","0","/Users/tom/github/sft-fraction/exp2/data/subject-2b.csv","legacy","#000000","high","4","Jazzy James","3.1.9","0","a","NA","space","space","space","a","NA","414","NA","61835","6558","21448","414","NA","2","legacy","1024","2","48000","-16","experiment","2","even","absent","91297","91297","NA","NA","1373","91280","137216","137738","1401","63255","69831","137738","138154","NA","137199","Fraction component detection task","38","23690","38","yes","1280"
"100","100","619.717948718","619.717948718","#808080","no","legacy","legacy","legacy","0","uniform","1","undefined","undefined","undefined","1","l","0","0","0","38","0","0","38","38","0","0","0","38","38","0","38","Thu May  3 10:05:57 2018","#000000","high","8","The main experiment item","yes","","exp2.osexp","/Users/tom/github/sft-fraction/exp2","mono","Zapfino","no","mono","no","24","no","white","no","yes","800","legacy","38","38","0","/Users/tom/github/sft-fraction/exp2/data/subject-2b.csv","legacy","#757575","low","8","Jazzy James","3.1.9","0","l","NA","space","space","space","l","NA","479","NA","61835","6558","21448","479","NA","2","legacy","1024","2","48000","-16","experiment","2","even","present","91297","91297","NA","NA","1373","91280","138233","138753","1401","63255","69831","138753","139235","NA","138218","Fraction component detection task","39","24169","39","yes","1280"
"100","100","616.625","616.625","#808080","no","legacy","legacy","legacy","0","uniform","1","undefined","undefined","undefined","1","a","0","0","0","39","0","0","39","39","0","0","0","39","39","0","39","Thu May  3 10:05:57 2018","#757575","low","3","The main experiment item","yes","","exp2.osexp","/Users/tom/github/sft-fraction/exp2","Zapfino","mono","no","mono","no","24","no","white","no","yes","800","legacy","39","39","0","/Users/tom/github/sft-fraction/exp2/data/subject-2b.csv","legacy","#000000","high","3","Jazzy James","3.1.9","0","a","NA","space","space","space","a","NA","496","NA","61835","6558","21448","496","NA","2","legacy","1024","2","48000","-16","experiment","2","even","absent","91297","91297","NA","NA","1373","91280","139316","139833","1401","63255","69831","139833","140331","NA","139301","Fraction component detection task","40","24665","40","yes","1280"
"100","100","616.243902439","616.243902439","#808080","no","legacy","legacy","legacy","0","uniform","1","undefined","undefined","undefined","1","l","0","0","0","40","0","0","40","40","0","0","0","40","40","0","40","Thu May  3 10:05:57 2018","#757575","low","6","The main experiment item","yes","","exp2.osexp","/Users/tom/github/sft-fraction/exp2","Zapfino","Zapfino","no","mono","no","24","no","white","no","yes","800","legacy","40","40","0","/Users/tom/github/sft-fraction/exp2/data/subject-2b.csv","legacy","#757575","low","8","Jazzy James","3.1.9","0","l","NA","space","space","space","l","NA","601","NA","61835","6558","21448","601","NA","2","legacy","1024","2","48000","-16","experiment","2","even","present","91297","91297","NA","NA","1373","91280","140411","140927","1401","63255","69831","140928","141531","NA","140397","Fraction component detection task","41","25266","41","yes","1280"
"100","100","617.166666667","617.166666667","#808080","no","legacy","legacy","legacy","0","uniform","1","undefined","undefined","undefined","1","a","0","0","0","41","0","0","41","41","0","0","0","41","41","0","41","Thu May  3 10:05:57 2018","#757575","low","3","The main experiment item","yes","","exp2.osexp","/Users/tom/github/sft-fraction/exp2","Zapfino","mono","no","mono","no","24","no","white","no","yes","800","legacy","41","41","0","/Users/tom/github/sft-fraction/exp2/data/subject-2b.csv","legacy","#000000","high","4","Jazzy James","3.1.9","0","a","NA","space","space","space","a","NA","655","NA","61835","6558","21448","655","NA","2","legacy","1024","2","48000","-16","experiment","2","even","absent","91297","91297","NA","NA","1373","91280","141613","142130","1401","63255","69831","142130","142787","NA","141594","Fraction component detection task","42","25921","42","yes","1280"
"100","100","615.093023256","615.093023256","#808080","no","legacy","legacy","legacy","0","uniform","1","undefined","undefined","undefined","1","a","0","0","0","42","0","0","42","42","0","0","0","42","42","0","42","Thu May  3 10:05:57 2018","#000000","high","2","The main experiment item","yes","","exp2.osexp","/Users/tom/github/sft-fraction/exp2","mono","mono","no","mono","no","24","no","white","no","yes","800","legacy","42","42","0","/Users/tom/github/sft-fraction/exp2/data/subject-2b.csv","legacy","#000000","high","2","Jazzy James","3.1.9","0","a","NA","space","space","space","a","NA","528","NA","61835","6558","21448","528","NA","2","legacy","1024","2","48000","-16","experiment","2","even","absent","91297","91297","NA","NA","1373","91280","142877","143393","1401","63255","69831","143393","143923","NA","142857","Fraction component detection task","43","26449","43","yes","1280"
"100","100","610.522727273","610.522727273","#808080","no","legacy","legacy","legacy","0","uniform","1","undefined","undefined","undefined","1","a","0","0","0","43","0","0","43","43","0","0","0","43","43","0","43","Thu May  3 10:05:57 2018","#757575","low","4","The main experiment item","yes","","exp2.osexp","/Users/tom/github/sft-fraction/exp2","Zapfino","Zapfino","no","mono","no","24","no","white","no","yes","800","legacy","43","43","0","/Users/tom/github/sft-fraction/exp2/data/subject-2b.csv","legacy","#757575","low","4","Jazzy James","3.1.9","0","a","NA","space","space","space","a","NA","414","NA","61835","6558","21448","414","NA","2","legacy","1024","2","48000","-16","experiment","2","even","absent","91297","91297","NA","NA","1373","91280","144010","144530","1401","63255","69831","144531","144947","NA","143994","Fraction component detection task","44","26863","44","yes","1280"
"100","100","610.266666667","610.266666667","#808080","no","legacy","legacy","legacy","0","uniform","1","undefined","undefined","undefined","1","l","0","0","0","44","0","0","44","44","0","0","0","44","44","0","44","Thu May  3 10:05:57 2018","#000000","high","3","The main experiment item","yes","","exp2.osexp","/Users/tom/github/sft-fraction/exp2","mono","Zapfino","no","mono","no","24","no","white","no","yes","800","legacy","44","44","0","/Users/tom/github/sft-fraction/exp2/data/subject-2b.csv","legacy","#757575","low","8","Jazzy James","3.1.9","0","l","NA","space","space","space","l","NA","599","NA","61835","6558","21448","599","NA","2","legacy","1024","2","48000","-16","experiment","2","even","present","91297","91297","NA","NA","1373","91280","145027","145545","1401","63255","69831","145545","146146","NA","145012","Fraction component detection task","45","27462","45","yes","1280"
"100","100","612.239130435","612.239130435","#808080","no","legacy","legacy","legacy","0","uniform","1","undefined","undefined","undefined","1","l","0","0","0","45","0","0","45","45","0","0","0","45","45","0","45","Thu May  3 10:05:57 2018","#000000","high","8","The main experiment item","yes","","exp2.osexp","/Users/tom/github/sft-fraction/exp2","mono","Zapfino","no","mono","no","24","no","white","no","yes","800","legacy","45","45","0","/Users/tom/github/sft-fraction/exp2/data/subject-2b.csv","legacy","#757575","low","2","Jazzy James","3.1.9","0","l","NA","space","space","space","l","NA","701","NA","61835","6558","21448","701","NA","2","legacy","1024","2","48000","-16","experiment","2","even","present","91297","91297","NA","NA","1373","91280","146227","146748","1401","63255","69831","146748","147451","NA","146212","Fraction component detection task","46","28163","46","yes","1280"
"100","100","615.914893617","615.914893617","#808080","no","legacy","legacy","legacy","0","uniform","1","undefined","undefined","undefined","1","l","0","0","0","46","0","0","46","46","0","0","0","46","46","0","46","Thu May  3 10:05:57 2018","#000000","high","4","The main experiment item","yes","","exp2.osexp","/Users/tom/github/sft-fraction/exp2","mono","mono","no","mono","no","24","no","white","no","yes","800","legacy","46","46","0","/Users/tom/github/sft-fraction/exp2/data/subject-2b.csv","legacy","#000000","high","6","Jazzy James","3.1.9","0","l","NA","space","space","space","l","NA","785","NA","61835","6558","21448","785","NA","2","legacy","1024","2","48000","-16","experiment","2","even","present","91297","91297","NA","NA","1373","91280","147532","148048","1401","63255","69831","148048","148836","NA","147517","Fraction component detection task","47","28948","47","yes","1280"
"100","100","616.666666667","616.666666667","#808080","no","legacy","legacy","legacy","0","uniform","1","undefined","undefined","undefined","1","a","0","0","0","47","0","0","47","47","0","0","0","47","47","0","47","Thu May  3 10:05:57 2018","#000000","high","3","The main experiment item","yes","","exp2.osexp","/Users/tom/github/sft-fraction/exp2","mono","Zapfino","no","mono","no","24","no","white","no","yes","800","legacy","47","47","0","/Users/tom/github/sft-fraction/exp2/data/subject-2b.csv","legacy","#757575","low","2","Jazzy James","3.1.9","0","a","NA","space","space","space","a","NA","652","NA","61835","6558","21448","652","NA","2","legacy","1024","2","48000","-16","experiment","2","even","absent","91297","91297","NA","NA","1373","91280","148920","149437","1401","63255","69831","149437","150091","NA","148905","Fraction component detection task","48","29600","48","yes","1280"
"100","100","615.673469388","615.673469388","#808080","no","legacy","legacy","legacy","0","uniform","1","undefined","undefined","undefined","1","a","0","0","0","48","0","0","48","48","0","0","0","48","48","0","48","Thu May  3 10:05:57 2018","#757575","low","4","The main experiment item","yes","","exp2.osexp","/Users/tom/github/sft-fraction/exp2","Zapfino","Zapfino","no","mono","no","24","no","white","no","yes","800","legacy","48","48","0","/Users/tom/github/sft-fraction/exp2/data/subject-2b.csv","legacy","#757575","low","3","Jazzy James","3.1.9","0","a","NA","space","space","space","a","NA","568","NA","61835","6558","21448","568","NA","2","legacy","1024","2","48000","-16","experiment","2","even","absent","91297","91297","NA","NA","1373","91280","150174","150690","1401","63255","69831","150690","151260","NA","150159","Fraction component detection task","49","30168","49","yes","1280"
"100","100","614.96","614.96","#808080","no","legacy","legacy","legacy","0","uniform","1","undefined","undefined","undefined","1","l","0","0","0","49","0","0","49","49","0","0","0","49","49","0","49","Thu May  3 10:05:57 2018","#757575","low","2","The main experiment item","yes","","exp2.osexp","/Users/tom/github/sft-fraction/exp2","Zapfino","Zapfino","no","mono","no","24","no","white","no","yes","800","legacy","49","49","0","/Users/tom/github/sft-fraction/exp2/data/subject-2b.csv","legacy","#757575","low","8","Jazzy James","3.1.9","0","l","NA","space","space","space","l","NA","580","NA","61835","6558","21448","580","NA","2","legacy","1024","2","48000","-16","experiment","2","even","present","91297","91297","NA","NA","1373","91280","151342","151862","1401","63255","69831","151862","152444","NA","151327","Fraction component detection task","50","30748","50","yes","1280"
"100","100","615.117647059","615.117647059","#808080","no","legacy","legacy","legacy","0","uniform","1","undefined","undefined","undefined","1","a","0","0","0","50","0","0","50","50","0","0","0","50","50","0","50","Thu May  3 10:05:57 2018","#757575","low","4","The main experiment item","yes","","exp2.osexp","/Users/tom/github/sft-fraction/exp2","Zapfino","mono","no","mono","no","24","no","white","no","yes","800","legacy","50","50","0","/Users/tom/github/sft-fraction/exp2/data/subject-2b.csv","legacy","#000000","high","2","Jazzy James","3.1.9","0","a","NA","space","space","space","a","NA","623","NA","61835","6558","21448","623","NA","2","legacy","1024","2","48000","-16","experiment","2","even","absent","91297","91297","NA","NA","1373","91280","152527","153043","1401","63255","69831","153043","153668","NA","152506","Fraction component detection task","51","31371","51","yes","1280"
"100","100","648.134615385","648.134615385","#808080","no","legacy","legacy","legacy","0","uniform","1","undefined","undefined","undefined","1","l","0","0","0","51","0","0","51","51","0","0","0","51","51","0","51","Thu May  3 10:05:57 2018","#757575","low","7","The main experiment item","yes","","exp2.osexp","/Users/tom/github/sft-fraction/exp2","Zapfino","Zapfino","no","mono","no","24","no","white","no","yes","800","legacy","51","51","0","/Users/tom/github/sft-fraction/exp2/data/subject-2b.csv","legacy","#757575","low","2","Jazzy James","3.1.9","0","l","NA","space","space","space","l","NA","2332","NA","61835","6558","21448","2332","NA","2","legacy","1024","2","48000","-16","experiment","2","even","present","91297","91297","NA","NA","1373","91280","153757","154278","1401","63255","69831","154278","156612","NA","153737","Fraction component detection task","52","33703","52","yes","1280"
"100","100","647.660377358","647.660377358","#808080","no","legacy","legacy","legacy","0","uniform","1","undefined","undefined","undefined","1","a","0","0","0","52","0","0","52","52","0","0","0","52","52","0","52","Thu May  3 10:05:57 2018","#000000","high","3","The main experiment item","yes","","exp2.osexp","/Users/tom/github/sft-fraction/exp2","mono","Zapfino","no","mono","no","24","no","white","no","yes","800","legacy","52","52","0","/Users/tom/github/sft-fraction/exp2/data/subject-2b.csv","legacy","#757575","low","3","Jazzy James","3.1.9","0","a","NA","space","space","space","a","NA","623","NA","61835","6558","21448","623","NA","2","legacy","1024","2","48000","-16","experiment","2","even","absent","91297","91297","NA","NA","1373","91280","156695","157210","1401","63255","69831","157211","157836","NA","156680","Fraction component detection task","53","34326","53","yes","1280"
"100","100","646.055555556","646.055555556","#808080","no","legacy","legacy","legacy","0","uniform","1","undefined","undefined","undefined","1","l","0","0","0","53","0","0","53","53","0","0","0","53","53","0","53","Thu May  3 10:05:57 2018","#757575","low","7","The main experiment item","yes","","exp2.osexp","/Users/tom/github/sft-fraction/exp2","Zapfino","mono","no","mono","no","24","no","white","no","yes","800","legacy","53","53","0","/Users/tom/github/sft-fraction/exp2/data/subject-2b.csv","legacy","#000000","high","7","Jazzy James","3.1.9","0","l","NA","space","space","space","l","NA","561","NA","61835","6558","21448","561","NA","2","legacy","1024","2","48000","-16","experiment","2","even","present","91297","91297","NA","NA","1373","91280","157923","158440","1401","63255","69831","158440","159003","NA","157902","Fraction component detection task","54","34887","54","yes","1280"
"100","100","643.327272727","643.327272727","#808080","no","legacy","legacy","legacy","0","uniform","1","undefined","undefined","undefined","1","l","0","0","0","54","0","0","54","54","0","0","0","54","54","0","54","Thu May  3 10:05:57 2018","#000000","high","6","The main experiment item","yes","","exp2.osexp","/Users/tom/github/sft-fraction/exp2","mono","mono","no","mono","no","24","no","white","no","yes","800","legacy","54","54","0","/Users/tom/github/sft-fraction/exp2/data/subject-2b.csv","legacy","#000000","high","6","Jazzy James","3.1.9","0","l","NA","space","space","space","l","NA","496","NA","61835","6558","21448","496","NA","2","legacy","1024","2","48000","-16","experiment","2","even","present","91297","91297","NA","NA","1373","91280","159091","159609","1401","63255","69831","159609","160107","NA","159071","Fraction component detection task","55","35383","55","yes","1280"
"100","100","641.767857143","641.767857143","#808080","no","legacy","legacy","legacy","0","uniform","1","undefined","undefined","undefined","1","l","0","0","0","55","0","0","55","55","0","0","0","55","55","0","55","Thu May  3 10:05:57 2018","#000000","high","6","The main experiment item","yes","","exp2.osexp","/Users/tom/github/sft-fraction/exp2","mono","Zapfino","no","mono","no","24","no","white","no","yes","800","legacy","55","55","0","/Users/tom/github/sft-fraction/exp2/data/subject-2b.csv","legacy","#757575","low","8","Jazzy James","3.1.9","0","l","NA","space","space","space","l","NA","556","NA","61835","6558","21448","556","NA","2","legacy","1024","2","48000","-16","experiment","2","even","present","91297","91297","NA","NA","1373","91280","160188","160709","1401","63255","69831","160710","161268","NA","160173","Fraction component detection task","56","35939","56","yes","1280"
"100","100","639.596491228","639.596491228","#808080","no","legacy","legacy","legacy","0","uniform","1","undefined","undefined","undefined","1","a","0","0","0","56","0","0","56","56","0","0","0","56","56","0","56","Thu May  3 10:05:57 2018","#757575","low","4","The main experiment item","yes","","exp2.osexp","/Users/tom/github/sft-fraction/exp2","Zapfino","mono","no","mono","no","24","no","white","no","yes","800","legacy","56","56","0","/Users/tom/github/sft-fraction/exp2/data/subject-2b.csv","legacy","#000000","high","3","Jazzy James","3.1.9","0","a","NA","space","space","space","a","NA","518","NA","61835","6558","21448","518","NA","2","legacy","1024","2","48000","-16","experiment","2","even","absent","91297","91297","NA","NA","1373","91280","161352","161868","1401","63255","69831","161868","162388","NA","161332","Fraction component detection task","57","36457","57","yes","1280"
"100","100","639.931034483","639.931034483","#808080","no","legacy","legacy","legacy","0","uniform","1","undefined","undefined","undefined","1","a","0","0","0","57","0","0","57","57","0","0","0","57","57","0","57","Thu May  3 10:05:57 2018","#757575","low","3","The main experiment item","yes","","exp2.osexp","/Users/tom/github/sft-fraction/exp2","Zapfino","Zapfino","no","mono","no","24","no","white","no","yes","800","legacy","57","57","0","/Users/tom/github/sft-fraction/exp2/data/subject-2b.csv","legacy","#757575","low","4","Jazzy James","3.1.9","0","a","NA","space","space","space","a","NA","659","NA","61835","6558","21448","659","NA","2","legacy","1024","2","48000","-16","experiment","2","even","absent","91297","91297","NA","NA","1373","91280","162476","162991","1401","63255","69831","162991","163652","NA","162455","Fraction component detection task","58","37116","58","yes","1280"
"100","100","638.728813559","638.728813559","#808080","no","legacy","legacy","legacy","0","uniform","1","undefined","undefined","undefined","1","a","0","0","0","58","0","0","58","58","0","0","0","58","58","0","58","Thu May  3 10:05:57 2018","#000000","high","3","The main experiment item","yes","","exp2.osexp","/Users/tom/github/sft-fraction/exp2","mono","Zapfino","no","mono","no","24","no","white","no","yes","800","legacy","58","58","0","/Users/tom/github/sft-fraction/exp2/data/subject-2b.csv","legacy","#757575","low","2","Jazzy James","3.1.9","0","a","NA","space","space","space","a","NA","569","NA","61835","6558","21448","569","NA","2","legacy","1024","2","48000","-16","experiment","2","even","absent","91297","91297","NA","NA","1373","91280","163740","164257","1401","63255","69831","164257","164829","NA","163720","Fraction component detection task","59","37685","59","yes","1280"
"100","100","635.466666667","635.466666667","#808080","no","legacy","legacy","legacy","0","uniform","1","undefined","undefined","undefined","1","l","0","0","0","59","0","0","59","59","0","0","0","59","59","0","59","Thu May  3 10:05:57 2018","#000000","high","7","The main experiment item","yes","","exp2.osexp","/Users/tom/github/sft-fraction/exp2","mono","Zapfino","no","mono","no","24","no","white","no","yes","800","legacy","59","59","0","/Users/tom/github/sft-fraction/exp2/data/subject-2b.csv","legacy","#757575","low","3","Jazzy James","3.1.9","0","l","NA","space","space","space","l","NA","443","NA","61835","6558","21448","443","NA","2","legacy","1024","2","48000","-16","experiment","2","even","present","91297","91297","NA","NA","1373","91280","164912","165431","1401","63255","69831","165431","165877","NA","164897","Fraction component detection task","60","38128","60","yes","1280"
"100","100","637.721311475","637.721311475","#808080","no","legacy","legacy","legacy","0","uniform","1","undefined","undefined","undefined","1","l","0","0","0","60","0","0","60","60","0","0","0","60","60","0","60","Thu May  3 10:05:57 2018","#757575","low","6","The main experiment item","yes","","exp2.osexp","/Users/tom/github/sft-fraction/exp2","Zapfino","mono","no","mono","no","24","no","white","no","yes","800","legacy","60","60","0","/Users/tom/github/sft-fraction/exp2/data/subject-2b.csv","legacy","#000000","high","7","Jazzy James","3.1.9","0","l","NA","space","space","space","l","NA","773","NA","61835","6558","21448","773","NA","2","legacy","1024","2","48000","-16","experiment","2","even","present","91297","91297","NA","NA","1373","91280","165960","166478","1401","63255","69831","166478","167253","NA","165944","Fraction component detection task","61","38901","61","yes","1280"
"100","100","636.741935484","636.741935484","#808080","no","legacy","legacy","legacy","0","uniform","1","undefined","undefined","undefined","1","a","0","0","0","61","0","0","61","61","0","0","0","61","61","0","61","Thu May  3 10:05:57 2018","#000000","high","3","The main experiment item","yes","","exp2.osexp","/Users/tom/github/sft-fraction/exp2","mono","mono","no","mono","no","24","no","white","no","yes","800","legacy","61","61","0","/Users/tom/github/sft-fraction/exp2/data/subject-2b.csv","legacy","#000000","high","2","Jazzy James","3.1.9","0","a","NA","space","space","space","a","NA","577","NA","61835","6558","21448","577","NA","2","legacy","1024","2","48000","-16","experiment","2","even","absent","91297","91297","NA","NA","1373","91280","167342","167858","1401","63255","69831","167858","168437","NA","167323","Fraction component detection task","62","39478","62","yes","1280"
"100","100","636.492063492","636.492063492","#808080","no","legacy","legacy","legacy","0","uniform","1","undefined","undefined","undefined","1","l","0","0","0","62","0","0","62","62","0","0","0","62","62","0","62","Thu May  3 10:05:57 2018","#757575","low","7","The main experiment item","yes","","exp2.osexp","/Users/tom/github/sft-fraction/exp2","Zapfino","Zapfino","no","mono","no","24","no","white","no","yes","800","legacy","62","62","0","/Users/tom/github/sft-fraction/exp2/data/subject-2b.csv","legacy","#757575","low","8","Jazzy James","3.1.9","0","l","NA","space","space","space","l","NA","621","NA","61835","6558","21448","621","NA","2","legacy","1024","2","48000","-16","experiment","2","even","present","91297","91297","NA","NA","1373","91280","168521","169038","1401","63255","69831","169038","169662","NA","168501","Fraction component detection task","63","40099","63","yes","1280"
"100","100","634.828125","634.828125","#808080","no","legacy","legacy","legacy","0","uniform","1","undefined","undefined","undefined","1","a","0","0","0","63","0","0","63","63","0","0","0","63","63","0","63","Thu May  3 10:05:57 2018","#757575","low","2","The main experiment item","yes","","exp2.osexp","/Users/tom/github/sft-fraction/exp2","Zapfino","mono","no","mono","no","24","no","white","no","yes","800","legacy","63","63","0","/Users/tom/github/sft-fraction/exp2/data/subject-2b.csv","legacy","#000000","high","2","Jazzy James","3.1.9","0","a","NA","space","space","space","a","NA","530","NA","61835","6558","21448","530","NA","2","legacy","1024","2","48000","-16","experiment","2","even","absent","91297","91297","NA","NA","1373","91280","169745","170264","1401","63255","69831","170265","170797","NA","169728","Fraction component detection task","64","40629","64","yes","1280"
"100","100","635.446153846","635.446153846","#808080","no","legacy","legacy","legacy","0","uniform","1","undefined","undefined","undefined","1","a","0","0","0","64","0","0","64","64","0","0","0","64","64","0","64","Thu May  3 10:05:57 2018","#000000","high","2","The main experiment item","yes","","exp2.osexp","/Users/tom/github/sft-fraction/exp2","mono","mono","no","mono","no","24","no","white","no","yes","800","legacy","64","64","0","/Users/tom/github/sft-fraction/exp2/data/subject-2b.csv","legacy","#000000","high","3","Jazzy James","3.1.9","0","a","NA","space","space","space","a","NA","675","NA","61835","6558","21448","675","NA","2","legacy","1024","2","48000","-16","experiment","2","even","absent","91297","91297","NA","NA","1373","91280","170882","171399","1401","63255","69831","171399","172076","NA","170862","Fraction component detection task","65","41304","65","yes","1280"
"100","100","635.378787879","635.378787879","#808080","no","legacy","legacy","legacy","0","uniform","1","undefined","undefined","undefined","1","l","0","0","0","65","0","0","65","65","0","0","0","65","65","0","65","Thu May  3 10:05:57 2018","#000000","high","6","The main experiment item","yes","","exp2.osexp","/Users/tom/github/sft-fraction/exp2","mono","mono","no","mono","no","24","no","white","no","yes","800","legacy","65","65","0","/Users/tom/github/sft-fraction/exp2/data/subject-2b.csv","legacy","#000000","high","8","Jazzy James","3.1.9","0","l","NA","space","space","space","l","NA","631","NA","61835","6558","21448","631","NA","2","legacy","1024","2","48000","-16","experiment","2","even","present","91297","91297","NA","NA","1373","91280","172155","172675","1401","63255","69831","172676","173309","NA","172141","Fraction component detection task","66","41935","66","yes","1280"
"100","100","634.28358209","634.28358209","#808080","no","legacy","legacy","legacy","0","uniform","1","undefined","undefined","undefined","1","l","0","0","0","66","0","0","66","66","0","0","0","66","66","0","66","Thu May  3 10:05:57 2018","#000000","high","8","The main experiment item","yes","","exp2.osexp","/Users/tom/github/sft-fraction/exp2","mono","mono","no","mono","no","24","no","white","no","yes","800","legacy","66","66","0","/Users/tom/github/sft-fraction/exp2/data/subject-2b.csv","legacy","#000000","high","4","Jazzy James","3.1.9","0","l","NA","space","space","space","l","NA","562","NA","61835","6558","21448","562","NA","2","legacy","1024","2","48000","-16","experiment","2","even","present","91297","91297","NA","NA","1373","91280","173387","173904","1401","63255","69831","173905","174469","NA","173373","Fraction component detection task","67","42497","67","yes","1280"
"100","100","633.235294118","633.235294118","#808080","no","legacy","legacy","legacy","0","uniform","1","undefined","undefined","undefined","1","a","0","0","0","67","0","0","67","67","0","0","0","67","67","0","67","Thu May  3 10:05:57 2018","#757575","low","2","The main experiment item","yes","","exp2.osexp","/Users/tom/github/sft-fraction/exp2","Zapfino","Zapfino","no","mono","no","24","no","white","no","yes","800","legacy","67","67","0","/Users/tom/github/sft-fraction/exp2/data/subject-2b.csv","legacy","#757575","low","4","Jazzy James","3.1.9","0","a","NA","space","space","space","a","NA","563","NA","61835","6558","21448","563","NA","2","legacy","1024","2","48000","-16","experiment","2","even","absent","91297","91297","NA","NA","1373","91280","174547","175064","1401","63255","69831","175064","175629","NA","174533","Fraction component detection task","68","43060","68","yes","1280"
"100","100","633.492753623","633.492753623","#808080","no","legacy","legacy","legacy","0","uniform","1","undefined","undefined","undefined","1","l","0","0","0","68","0","0","68","68","0","0","0","68","68","0","68","Thu May  3 10:05:57 2018","#000000","high","3","The main experiment item","yes","","exp2.osexp","/Users/tom/github/sft-fraction/exp2","mono","Zapfino","no","mono","no","24","no","white","no","yes","800","legacy","68","68","0","/Users/tom/github/sft-fraction/exp2/data/subject-2b.csv","legacy","#757575","low","7","Jazzy James","3.1.9","0","l","NA","space","space","space","l","NA","651","NA","61835","6558","21448","651","NA","2","legacy","1024","2","48000","-16","experiment","2","even","present","91297","91297","NA","NA","1373","91280","175714","176232","1401","63255","69831","176232","176886","NA","175694","Fraction component detection task","69","43711","69","yes","1280"
"100","100","632.428571429","632.428571429","#808080","no","legacy","legacy","legacy","0","uniform","1","undefined","undefined","undefined","1","l","0","0","0","69","0","0","69","69","0","0","0","69","69","0","69","Thu May  3 10:05:57 2018","#757575","low","3","The main experiment item","yes","","exp2.osexp","/Users/tom/github/sft-fraction/exp2","Zapfino","Zapfino","no","mono","no","24","no","white","no","yes","800","legacy","69","69","0","/Users/tom/github/sft-fraction/exp2/data/subject-2b.csv","legacy","#757575","low","8","Jazzy James","3.1.9","0","l","NA","space","space","space","l","NA","559","NA","61835","6558","21448","559","NA","2","legacy","1024","2","48000","-16","experiment","2","even","present","91297","91297","NA","NA","1373","91280","176966","177482","1401","63255","69831","177483","178044","NA","176951","Fraction component detection task","70","44270","70","yes","1280"
"100","100","632.971830986","632.971830986","#808080","no","legacy","legacy","legacy","0","uniform","1","undefined","undefined","undefined","1","l","0","0","0","70","0","0","70","70","0","0","0","70","70","0","70","Thu May  3 10:05:57 2018","#757575","low","6","The main experiment item","yes","","exp2.osexp","/Users/tom/github/sft-fraction/exp2","Zapfino","mono","no","mono","no","24","no","white","no","yes","800","legacy","70","70","0","/Users/tom/github/sft-fraction/exp2/data/subject-2b.csv","legacy","#000000","high","3","Jazzy James","3.1.9","0","l","NA","space","space","space","l","NA","671","NA","61835","6558","21448","671","NA","2","legacy","1024","2","48000","-16","experiment","2","even","present","91297","91297","NA","NA","1373","91280","178126","178643","1401","63255","69831","178644","179317","NA","178107","Fraction component detection task","71","44941","71","yes","1280"
"100","100","632.513888889","632.513888889","#808080","no","legacy","legacy","legacy","0","uniform","1","undefined","undefined","undefined","1","a","0","0","0","71","0","0","71","71","0","0","0","71","71","0","71","Thu May  3 10:05:57 2018","#757575","low","2","The main experiment item","yes","","exp2.osexp","/Users/tom/github/sft-fraction/exp2","Zapfino","Zapfino","no","mono","no","24","no","white","no","yes","800","legacy","71","71","0","/Users/tom/github/sft-fraction/exp2/data/subject-2b.csv","legacy","#757575","low","3","Jazzy James","3.1.9","0","a","NA","space","space","space","a","NA","600","NA","61835","6558","21448","600","NA","2","legacy","1024","2","48000","-16","experiment","2","even","absent","91297","91297","NA","NA","1373","91280","179399","179915","1401","63255","69831","179915","180518","NA","179384","Fraction component detection task","72","45541","72","yes","1280"
"100","100","631.136986301","631.136986301","#808080","no","legacy","legacy","legacy","0","uniform","1","undefined","undefined","undefined","1","a","0","0","0","72","0","0","72","72","0","0","0","72","72","0","72","Thu May  3 10:05:57 2018","#757575","low","3","The main experiment item","yes","","exp2.osexp","/Users/tom/github/sft-fraction/exp2","Zapfino","Zapfino","no","mono","no","24","no","white","no","yes","800","legacy","72","72","0","/Users/tom/github/sft-fraction/exp2/data/subject-2b.csv","legacy","#757575","low","4","Jazzy James","3.1.9","0","a","NA","space","space","space","a","NA","532","NA","61835","6558","21448","532","NA","2","legacy","1024","2","48000","-16","experiment","2","even","absent","91297","91297","NA","NA","1373","91280","180601","181119","1401","63255","69831","181119","181654","NA","180583","Fraction component detection task","73","46073","73","yes","1280"
"100","100","629.662162162","629.662162162","#808080","no","legacy","legacy","legacy","0","uniform","1","undefined","undefined","undefined","1","l","0","0","0","73","0","0","73","73","0","0","0","73","73","0","73","Thu May  3 10:05:57 2018","#000000","high","2","The main experiment item","yes","","exp2.osexp","/Users/tom/github/sft-fraction/exp2","mono","mono","no","mono","no","24","no","white","no","yes","800","legacy","73","73","0","/Users/tom/github/sft-fraction/exp2/data/subject-2b.csv","legacy","#000000","high","7","Jazzy James","3.1.9","0","l","NA","space","space","space","l","NA","522","NA","61835","6558","21448","522","NA","2","legacy","1024","2","48000","-16","experiment","2","even","present","91297","91297","NA","NA","1373","91280","181737","182257","1401","63255","69831","182257","182782","NA","181723","Fraction component detection task","74","46595","74","yes","1280"
"100","100","628.44","628.44","#808080","no","legacy","legacy","legacy","0","uniform","1","undefined","undefined","undefined","1","l","0","0","0","74","0","0","74","74","0","0","0","74","74","0","74","Thu May  3 10:05:57 2018","#000000","high","6","The main experiment item","yes","","exp2.osexp","/Users/tom/github/sft-fraction/exp2","mono","Zapfino","no","mono","no","24","no","white","no","yes","800","legacy","74","74","0","/Users/tom/github/sft-fraction/exp2/data/subject-2b.csv","legacy","#757575","low","6","Jazzy James","3.1.9","0","l","NA","space","space","space","l","NA","538","NA","61835","6558","21448","538","NA","2","legacy","1024","2","48000","-16","experiment","2","even","present","91297","91297","NA","NA","1373","91280","182866","183384","1401","63255","69831","183385","183928","NA","182848","Fraction component detection task","75","47133","75","yes","1280"
"100","100","627.460526316","627.460526316","#808080","no","legacy","legacy","legacy","0","uniform","1","undefined","undefined","undefined","1","l","0","0","0","75","0","0","75","75","0","0","0","75","75","0","75","Thu May  3 10:05:57 2018","#000000","high","8","The main experiment item","yes","","exp2.osexp","/Users/tom/github/sft-fraction/exp2","mono","mono","no","mono","no","24","no","white","no","yes","800","legacy","75","75","0","/Users/tom/github/sft-fraction/exp2/data/subject-2b.csv","legacy","#000000","high","3","Jazzy James","3.1.9","0","l","NA","space","space","space","l","NA","554","NA","61835","6558","21448","554","NA","2","legacy","1024","2","48000","-16","experiment","2","even","present","91297","91297","NA","NA","1373","91280","184010","184528","1401","63255","69831","184528","185085","NA","183996","Fraction component detection task","76","47687","76","yes","1280"
"100","100","628.441558442","628.441558442","#808080","no","legacy","legacy","legacy","0","uniform","1","undefined","undefined","undefined","1","l","0","0","0","76","0","0","76","76","0","0","0","76","76","0","76","Thu May  3 10:05:57 2018","#757575","low","4","The main experiment item","yes","","exp2.osexp","/Users/tom/github/sft-fraction/exp2","Zapfino","mono","no","mono","no","24","no","white","no","yes","800","legacy","76","76","0","/Users/tom/github/sft-fraction/exp2/data/subject-2b.csv","legacy","#000000","high","6","Jazzy James","3.1.9","0","l","NA","space","space","space","l","NA","703","NA","61835","6558","21448","703","NA","2","legacy","1024","2","48000","-16","experiment","2","even","present","91297","91297","NA","NA","1373","91280","185175","185692","1401","63255","69831","185692","186398","NA","185155","Fraction component detection task","77","48390","77","yes","1280"
"100","100","628.115384615","628.115384615","#808080","no","legacy","legacy","legacy","0","uniform","1","undefined","undefined","undefined","1","a","0","0","0","77","0","0","77","77","0","0","0","77","77","0","77","Thu May  3 10:05:57 2018","#757575","low","3","The main experiment item","yes","","exp2.osexp","/Users/tom/github/sft-fraction/exp2","Zapfino","Zapfino","no","mono","no","24","no","white","no","yes","800","legacy","77","77","0","/Users/tom/github/sft-fraction/exp2/data/subject-2b.csv","legacy","#757575","low","2","Jazzy James","3.1.9","0","a","NA","space","space","space","a","NA","603","NA","61835","6558","21448","603","NA","2","legacy","1024","2","48000","-16","experiment","2","even","absent","91297","91297","NA","NA","1373","91280","186482","187000","1401","63255","69831","187000","187606","NA","186463","Fraction component detection task","78","48993","78","yes","1280"
"100","100","631.405063291","631.405063291","#808080","no","legacy","legacy","legacy","0","uniform","1","undefined","undefined","undefined","1","l","0","0","0","78","0","0","78","78","0","0","0","78","78","0","78","Thu May  3 10:05:57 2018","#757575","low","6","The main experiment item","yes","","exp2.osexp","/Users/tom/github/sft-fraction/exp2","Zapfino","Zapfino","no","mono","no","24","no","white","no","yes","800","legacy","78","78","0","/Users/tom/github/sft-fraction/exp2/data/subject-2b.csv","legacy","#757575","low","7","Jazzy James","3.1.9","0","l","NA","space","space","space","l","NA","888","NA","61835","6558","21448","888","NA","2","legacy","1024","2","48000","-16","experiment","2","even","present","91297","91297","NA","NA","1373","91280","187687","188203","1401","63255","69831","188203","189093","NA","187670","Fraction component detection task","79","49881","79","yes","1280"
"100","100","631.3875","631.3875","#808080","no","legacy","legacy","legacy","0","uniform","1","undefined","undefined","undefined","1","a","0","0","0","79","0","0","79","79","0","0","0","79","79","0","79","Thu May  3 10:05:57 2018","#757575","low","2","The main experiment item","yes","","exp2.osexp","/Users/tom/github/sft-fraction/exp2","Zapfino","Zapfino","no","mono","no","24","no","white","no","yes","800","legacy","79","79","0","/Users/tom/github/sft-fraction/exp2/data/subject-2b.csv","legacy","#757575","low","4","Jazzy James","3.1.9","0","a","NA","space","space","space","a","NA","630","NA","61835","6558","21448","630","NA","2","legacy","1024","2","48000","-16","experiment","2","even","absent","91297","91297","NA","NA","1373","91280","189177","189694","1401","63255","69831","189694","190327","NA","189155","Fraction component detection task","80","50511","80","yes","1280"
"100","100","632.814814815","632.814814815","#808080","no","legacy","legacy","legacy","0","uniform","1","undefined","undefined","undefined","1","l","0","0","0","80","0","0","80","80","0","0","0","80","80","0","80","Thu May  3 10:05:57 2018","#757575","low","2","The main experiment item","yes","","exp2.osexp","/Users/tom/github/sft-fraction/exp2","Zapfino","Zapfino","no","mono","no","24","no","white","no","yes","800","legacy","80","80","0","/Users/tom/github/sft-fraction/exp2/data/subject-2b.csv","legacy","#757575","low","6","Jazzy James","3.1.9","0","l","NA","space","space","space","l","NA","747","NA","61835","6558","21448","747","NA","2","legacy","1024","2","48000","-16","experiment","2","even","present","91297","91297","NA","NA","1373","91280","190412","190929","1401","63255","69831","190929","191678","NA","190398","Fraction component detection task","81","51258","81","yes","1280"
"100","100","632.317073171","632.317073171","#808080","no","legacy","legacy","legacy","0","uniform","1","undefined","undefined","undefined","1","l","0","0","0","81","0","0","81","81","0","0","0","81","81","0","81","Thu May  3 10:05:57 2018","#757575","low","3","The main experiment item","yes","","exp2.osexp","/Users/tom/github/sft-fraction/exp2","Zapfino","Zapfino","no","mono","no","24","no","white","no","yes","800","legacy","81","81","0","/Users/tom/github/sft-fraction/exp2/data/subject-2b.csv","legacy","#757575","low","7","Jazzy James","3.1.9","0","l","NA","space","space","space","l","NA","592","NA","61835","6558","21448","592","NA","2","legacy","1024","2","48000","-16","experiment","2","even","present","91297","91297","NA","NA","1373","91280","191760","192276","1401","63255","69831","192276","192870","NA","191745","Fraction component detection task","82","51850","82","yes","1280"
"100","100","632.13253012","632.13253012","#808080","no","legacy","legacy","legacy","0","uniform","1","undefined","undefined","undefined","1","l","0","0","0","82","0","0","82","82","0","0","0","82","82","0","82","Thu May  3 10:05:57 2018","#000000","high","4","The main experiment item","yes","","exp2.osexp","/Users/tom/github/sft-fraction/exp2","mono","Zapfino","no","mono","no","24","no","white","no","yes","800","legacy","82","82","0","/Users/tom/github/sft-fraction/exp2/data/subject-2b.csv","legacy","#757575","low","6","Jazzy James","3.1.9","0","l","NA","space","space","space","l","NA","617","NA","61835","6558","21448","617","NA","2","legacy","1024","2","48000","-16","experiment","2","even","present","91297","91297","NA","NA","1373","91280","192954","193474","1401","63255","69831","193474","194094","NA","192934","Fraction component detection task","83","52467","83","yes","1280"
"100","100","632.297619048","632.297619048","#808080","no","legacy","legacy","legacy","0","uniform","1","undefined","undefined","undefined","1","a","0","0","0","83","0","0","83","83","0","0","0","83","83","0","83","Thu May  3 10:05:57 2018","#757575","low","4","The main experiment item","yes","","exp2.osexp","/Users/tom/github/sft-fraction/exp2","Zapfino","mono","no","mono","no","24","no","white","no","yes","800","legacy","83","83","0","/Users/tom/github/sft-fraction/exp2/data/subject-2b.csv","legacy","#000000","high","4","Jazzy James","3.1.9","0","a","NA","space","space","space","a","NA","646","NA","61835","6558","21448","646","NA","2","legacy","1024","2","48000","-16","experiment","2","even","absent","91297","91297","NA","NA","1373","91280","194178","194694","1401","63255","69831","194694","195344","NA","194163","Fraction component detection task","84","53113","84","yes","1280"
"100","100","632.317647059","632.317647059","#808080","no","legacy","legacy","legacy","0","uniform","1","undefined","undefined","undefined","1","l","0","0","0","84","0","0","84","84","0","0","0","84","84","0","84","Thu May  3 10:05:57 2018","#757575","low","2","The main experiment item","yes","","exp2.osexp","/Users/tom/github/sft-fraction/exp2","Zapfino","mono","no","mono","no","24","no","white","no","yes","800","legacy","84","84","0","/Users/tom/github/sft-fraction/exp2/data/subject-2b.csv","legacy","#000000","high","6","Jazzy James","3.1.9","0","l","NA","space","space","space","l","NA","634","NA","61835","6558","21448","634","NA","2","legacy","1024","2","48000","-16","experiment","2","even","present","91297","91297","NA","NA","1373","91280","195429","195946","1401","63255","69831","195946","196582","NA","195413","Fraction component detection task","85","53747","85","yes","1280"
"100","100","637.430232558","637.430232558","#808080","no","legacy","legacy","legacy","0","uniform","1","undefined","undefined","undefined","1","l","0","0","0","85","0","0","85","85","0","0","0","85","85","0","85","Thu May  3 10:05:57 2018","#000000","high","7","The main experiment item","yes","","exp2.osexp","/Users/tom/github/sft-fraction/exp2","mono","Zapfino","no","mono","no","24","no","white","no","yes","800","legacy","85","85","0","/Users/tom/github/sft-fraction/exp2/data/subject-2b.csv","legacy","#757575","low","8","Jazzy James","3.1.9","0","l","NA","space","space","space","l","NA","1072","NA","61835","6558","21448","1072","NA","2","legacy","1024","2","48000","-16","experiment","2","even","present","91297","91297","NA","NA","1373","91280","196664","197180","1401","63255","69831","197180","198255","NA","196649","Fraction component detection task","86","54819","86","yes","1280"
"100","100","636.954022989","636.954022989","#808080","no","legacy","legacy","legacy","0","uniform","1","undefined","undefined","undefined","1","a","0","0","0","86","0","0","86","86","0","0","0","86","86","0","86","Thu May  3 10:05:57 2018","#000000","high","3","The main experiment item","yes","","exp2.osexp","/Users/tom/github/sft-fraction/exp2","mono","mono","no","mono","no","24","no","white","no","yes","800","legacy","86","86","0","/Users/tom/github/sft-fraction/exp2/data/subject-2b.csv","legacy","#000000","high","4","Jazzy James","3.1.9","0","a","NA","space","space","space","a","NA","596","NA","61835","6558","21448","596","NA","2","legacy","1024","2","48000","-16","experiment","2","even","absent","91297","91297","NA","NA","1373","91280","198332","198848","1401","63255","69831","198848","199447","NA","198317","Fraction component detection task","87","55415","87","yes","1280"
"100","100","635.295454545","635.295454545","#808080","no","legacy","legacy","legacy","0","uniform","1","undefined","undefined","undefined","1","a","0","0","0","87","0","0","87","87","0","0","0","87","87","0","87","Thu May  3 10:05:57 2018","#757575","low","4","The main experiment item","yes","","exp2.osexp","/Users/tom/github/sft-fraction/exp2","Zapfino","mono","no","mono","no","24","no","white","no","yes","800","legacy","87","87","0","/Users/tom/github/sft-fraction/exp2/data/subject-2b.csv","legacy","#000000","high","4","Jazzy James","3.1.9","0","a","NA","space","space","space","a","NA","491","NA","61835","6558","21448","491","NA","2","legacy","1024","2","48000","-16","experiment","2","even","absent","91297","91297","NA","NA","1373","91280","199525","200041","1401","63255","69831","200041","200535","NA","199510","Fraction component detection task","88","55906","88","yes","1280"
"100","100","638.112359551","638.112359551","#808080","no","legacy","legacy","legacy","0","uniform","1","undefined","undefined","undefined","1","a","0","0","0","88","0","0","88","88","0","0","0","88","88","0","88","Thu May  3 10:05:57 2018","#757575","low","4","The main experiment item","yes","","exp2.osexp","/Users/tom/github/sft-fraction/exp2","Zapfino","mono","no","mono","no","24","no","white","no","yes","800","legacy","88","88","0","/Users/tom/github/sft-fraction/exp2/data/subject-2b.csv","legacy","#000000","high","2","Jazzy James","3.1.9","0","a","NA","space","space","space","a","NA","886","NA","61835","6558","21448","886","NA","2","legacy","1024","2","48000","-16","experiment","2","even","absent","91297","91297","NA","NA","1373","91280","200617","201132","1401","63255","69831","201133","202022","NA","200601","Fraction component detection task","89","56792","89","yes","1280"
"100","100","636.988888889","636.988888889","#808080","no","legacy","legacy","legacy","0","uniform","1","undefined","undefined","undefined","1","l","0","0","0","89","0","0","89","89","0","0","0","89","89","0","89","Thu May  3 10:05:57 2018","#757575","low","8","The main experiment item","yes","","exp2.osexp","/Users/tom/github/sft-fraction/exp2","Zapfino","Zapfino","no","mono","no","24","no","white","no","yes","800","legacy","89","89","0","/Users/tom/github/sft-fraction/exp2/data/subject-2b.csv","legacy","#757575","low","6","Jazzy James","3.1.9","0","l","NA","space","space","space","l","NA","537","NA","61835","6558","21448","537","NA","2","legacy","1024","2","48000","-16","experiment","2","even","present","91297","91297","NA","NA","1373","91280","202102","202618","1401","63255","69831","202618","203158","NA","202087","Fraction component detection task","90","57329","90","yes","1280"
"100","100","636.043956044","636.043956044","#808080","no","legacy","legacy","legacy","0","uniform","1","undefined","undefined","undefined","1","l","0","0","0","90","0","0","90","90","0","0","0","90","90","0","90","Thu May  3 10:05:57 2018","#000000","high","4","The main experiment item","yes","","exp2.osexp","/Users/tom/github/sft-fraction/exp2","mono","Zapfino","no","mono","no","24","no","white","no","yes","800","legacy","90","90","0","/Users/tom/github/sft-fraction/exp2/data/subject-2b.csv","legacy","#757575","low","8","Jazzy James","3.1.9","0","l","NA","space","space","space","l","NA","551","NA","61835","6558","21448","551","NA","2","legacy","1024","2","48000","-16","experiment","2","even","present","91297","91297","NA","NA","1373","91280","203249","203765","1401","63255","69831","203765","204319","NA","203227","Fraction component detection task","91","57880","91","yes","1280"
"100","100","635.402173913","635.402173913","#808080","no","legacy","legacy","legacy","0","uniform","1","undefined","undefined","undefined","1","a","0","0","0","91","0","0","91","91","0","0","0","91","91","0","91","Thu May  3 10:05:57 2018","#757575","low","4","The main experiment item","yes","","exp2.osexp","/Users/tom/github/sft-fraction/exp2","Zapfino","mono","no","mono","no","24","no","white","no","yes","800","legacy","91","91","0","/Users/tom/github/sft-fraction/exp2/data/subject-2b.csv","legacy","#000000","high","3","Jazzy James","3.1.9","0","a","NA","space","space","space","a","NA","577","NA","61835","6558","21448","577","NA","2","legacy","1024","2","48000","-16","experiment","2","even","absent","91297","91297","NA","NA","1373","91280","204404","204923","1401","63255","69831","204923","205503","NA","204387","Fraction component detection task","92","58457","92","yes","1280"
"100","100","635.387096774","635.387096774","#808080","no","legacy","legacy","legacy","0","uniform","1","undefined","undefined","undefined","1","a","0","0","0","92","0","0","92","92","0","0","0","92","92","0","92","Thu May  3 10:05:57 2018","#000000","high","3","The main experiment item","yes","","exp2.osexp","/Users/tom/github/sft-fraction/exp2","mono","mono","no","mono","no","24","no","white","no","yes","800","legacy","92","92","0","/Users/tom/github/sft-fraction/exp2/data/subject-2b.csv","legacy","#000000","high","3","Jazzy James","3.1.9","0","a","NA","space","space","space","a","NA","634","NA","61835","6558","21448","634","NA","2","legacy","1024","2","48000","-16","experiment","2","even","absent","91297","91297","NA","NA","1373","91280","205586","206106","1401","63255","69831","206106","206743","NA","205571","Fraction component detection task","93","59091","93","yes","1280"
"100","100","637.606382979","637.606382979","#808080","no","legacy","legacy","legacy","0","uniform","1","undefined","undefined","undefined","1","a","0","0","0","93","0","0","93","93","0","0","0","93","93","0","93","Thu May  3 10:05:57 2018","#000000","high","3","The main experiment item","yes","","exp2.osexp","/Users/tom/github/sft-fraction/exp2","mono","Zapfino","no","mono","no","24","no","white","no","yes","800","legacy","93","93","0","/Users/tom/github/sft-fraction/exp2/data/subject-2b.csv","legacy","#757575","low","2","Jazzy James","3.1.9","0","a","NA","space","space","space","a","NA","844","NA","61835","6558","21448","844","NA","2","legacy","1024","2","48000","-16","experiment","2","even","absent","91297","91297","NA","NA","1373","91280","206830","207350","1401","63255","69831","207351","208198","NA","206813","Fraction component detection task","94","59935","94","yes","1280"
"100","100","636.452631579","636.452631579","#808080","no","legacy","legacy","legacy","0","uniform","1","undefined","undefined","undefined","1","l","0","0","0","94","0","0","94","94","0","0","0","94","94","0","94","Thu May  3 10:05:57 2018","#757575","low","7","The main experiment item","yes","","exp2.osexp","/Users/tom/github/sft-fraction/exp2","Zapfino","mono","no","mono","no","24","no","white","no","yes","800","legacy","94","94","0","/Users/tom/github/sft-fraction/exp2/data/subject-2b.csv","legacy","#000000","high","3","Jazzy James","3.1.9","0","l","NA","space","space","space","l","NA","528","NA","61835","6558","21448","528","NA","2","legacy","1024","2","48000","-16","experiment","2","even","present","91297","91297","NA","NA","1373","91280","208280","208796","1401","63255","69831","208797","209327","NA","208265","Fraction component detection task","95","60463","95","yes","1280"
"100","100","635.34375","635.34375","#808080","no","legacy","legacy","legacy","0","uniform","1","undefined","undefined","undefined","1","l","0","0","0","95","0","0","95","95","0","0","0","95","95","0","95","Thu May  3 10:05:57 2018","#000000","high","6","The main experiment item","yes","","exp2.osexp","/Users/tom/github/sft-fraction/exp2","mono","mono","no","mono","no","24","no","white","no","yes","800","legacy","95","95","0","/Users/tom/github/sft-fraction/exp2/data/subject-2b.csv","legacy","#000000","high","4","Jazzy James","3.1.9","0","l","NA","space","space","space","l","NA","530","NA","61835","6558","21448","530","NA","2","legacy","1024","2","48000","-16","experiment","2","even","present","91297","91297","NA","NA","1373","91280","209406","209923","1401","63255","69831","209923","210455","NA","209391","Fraction component detection task","96","60993","96","yes","1280"
"100","100","634.525773196","634.525773196","#808080","no","legacy","legacy","legacy","0","uniform","1","undefined","undefined","undefined","1","a","0","0","0","96","0","0","96","96","0","0","0","96","96","0","96","Thu May  3 10:05:57 2018","#757575","low","3","The main experiment item","yes","","exp2.osexp","/Users/tom/github/sft-fraction/exp2","Zapfino","Zapfino","no","mono","no","24","no","white","no","yes","800","legacy","96","96","0","/Users/tom/github/sft-fraction/exp2/data/subject-2b.csv","legacy","#757575","low","3","Jazzy James","3.1.9","0","a","NA","space","space","space","a","NA","556","NA","61835","6558","21448","556","NA","2","legacy","1024","2","48000","-16","experiment","2","even","absent","91297","91297","NA","NA","1373","91280","210539","211057","1401","63255","69831","211057","211616","NA","210522","Fraction component detection task","97","61549","97","yes","1280"
"100","100","633.734693878","633.734693878","#808080","no","legacy","legacy","legacy","0","uniform","1","undefined","undefined","undefined","1","l","0","0","0","97","0","0","97","97","0","0","0","97","97","0","97","Thu May  3 10:05:57 2018","#000000","high","7","The main experiment item","yes","","exp2.osexp","/Users/tom/github/sft-fraction/exp2","mono","mono","no","mono","no","24","no","white","no","yes","800","legacy","97","97","0","/Users/tom/github/sft-fraction/exp2/data/subject-2b.csv","legacy","#000000","high","2","Jazzy James","3.1.9","0","l","NA","space","space","space","l","NA","557","NA","61835","6558","21448","557","NA","2","legacy","1024","2","48000","-16","experiment","2","even","present","91297","91297","NA","NA","1373","91280","211704","212224","1401","63255","69831","212224","212783","NA","211684","Fraction component detection task","98","62106","98","yes","1280"
"100","100","633.02020202","633.02020202","#808080","no","legacy","legacy","legacy","0","uniform","1","undefined","undefined","undefined","1","l","0","0","0","98","0","0","98","98","0","0","0","98","98","0","98","Thu May  3 10:05:57 2018","#000000","high","6","The main experiment item","yes","","exp2.osexp","/Users/tom/github/sft-fraction/exp2","mono","Zapfino","no","mono","no","24","no","white","no","yes","800","legacy","98","98","0","/Users/tom/github/sft-fraction/exp2/data/subject-2b.csv","legacy","#757575","low","7","Jazzy James","3.1.9","0","l","NA","space","space","space","l","NA","563","NA","61835","6558","21448","563","NA","2","legacy","1024","2","48000","-16","experiment","2","even","present","91297","91297","NA","NA","1373","91280","212867","213386","1401","63255","69831","213386","213952","NA","212852","Fraction component detection task","99","62669","99","yes","1280"
"100","100","632.07","632.07","#808080","no","legacy","legacy","legacy","0","uniform","1","undefined","undefined","undefined","1","a","0","0","0","99","0","0","99","99","0","0","0","99","99","0","99","Thu May  3 10:05:57 2018","#757575","low","3","The main experiment item","yes","","exp2.osexp","/Users/tom/github/sft-fraction/exp2","Zapfino","Zapfino","no","mono","no","24","no","white","no","yes","800","legacy","99","99","0","/Users/tom/github/sft-fraction/exp2/data/subject-2b.csv","legacy","#757575","low","2","Jazzy James","3.1.9","0","a","NA","space","space","space","a","NA","538","NA","61835","6558","21448","538","NA","2","legacy","1024","2","48000","-16","experiment","2","even","absent","91297","91297","NA","NA","1373","91280","214036","214553","1401","63255","69831","214554","215095","NA","214016","Fraction component detection task","100","63207","100","yes","1280"
"100","100","633.069306931","633.069306931","#808080","no","legacy","legacy","legacy","0","uniform","1","undefined","undefined","undefined","1","l","0","0","0","100","0","0","100","100","0","0","0","100","100","0","100","Thu May  3 10:05:57 2018","#000000","high","3","The main experiment item","yes","","exp2.osexp","/Users/tom/github/sft-fraction/exp2","mono","mono","no","mono","no","24","no","white","no","yes","800","legacy","100","100","0","/Users/tom/github/sft-fraction/exp2/data/subject-2b.csv","legacy","#000000","high","7","Jazzy James","3.1.9","0","l","NA","space","space","space","l","NA","733","NA","61835","6558","21448","733","NA","2","legacy","1024","2","48000","-16","experiment","2","even","present","91297","91297","NA","NA","1373","91280","215178","215695","1401","63255","69831","215696","216432","NA","215159","Fraction component detection task","101","63940","101","yes","1280"
"100","100","634.029411765","634.029411765","#808080","no","legacy","legacy","legacy","0","uniform","1","undefined","undefined","undefined","1","a","0","0","0","101","0","0","101","101","0","0","0","101","101","0","101","Thu May  3 10:05:57 2018","#000000","high","4","The main experiment item","yes","","exp2.osexp","/Users/tom/github/sft-fraction/exp2","mono","mono","no","mono","no","24","no","white","no","yes","800","legacy","101","101","0","/Users/tom/github/sft-fraction/exp2/data/subject-2b.csv","legacy","#000000","high","2","Jazzy James","3.1.9","0","a","NA","space","space","space","a","NA","731","NA","61835","6558","21448","731","NA","2","legacy","1024","2","48000","-16","experiment","2","even","absent","91297","91297","NA","NA","1373","91280","216515","217034","1401","63255","69831","217034","217768","NA","216497","Fraction component detection task","102","64671","102","yes","1280"
"100","100","633.893203883","633.893203883","#808080","no","legacy","legacy","legacy","0","uniform","1","undefined","undefined","undefined","1","l","0","0","0","102","0","0","102","102","0","0","0","102","102","0","102","Thu May  3 10:05:57 2018","#000000","high","6","The main experiment item","yes","","exp2.osexp","/Users/tom/github/sft-fraction/exp2","mono","mono","no","mono","no","24","no","white","no","yes","800","legacy","102","102","0","/Users/tom/github/sft-fraction/exp2/data/subject-2b.csv","legacy","#000000","high","2","Jazzy James","3.1.9","0","l","NA","space","space","space","l","NA","620","NA","61835","6558","21448","620","NA","2","legacy","1024","2","48000","-16","experiment","2","even","present","91297","91297","NA","NA","1373","91280","217852","218368","1401","63255","69831","218369","218993","NA","217832","Fraction component detection task","103","65291","103","yes","1280"
"100","100","632.865384615","632.865384615","#808080","no","legacy","legacy","legacy","0","uniform","1","undefined","undefined","undefined","1","a","0","0","0","103","0","0","103","103","0","0","0","103","103","0","103","Thu May  3 10:05:57 2018","#000000","high","3","The main experiment item","yes","","exp2.osexp","/Users/tom/github/sft-fraction/exp2","mono","mono","no","mono","no","24","no","white","no","yes","800","legacy","103","103","0","/Users/tom/github/sft-fraction/exp2/data/subject-2b.csv","legacy","#000000","high","2","Jazzy James","3.1.9","0","a","NA","space","space","space","a","NA","527","NA","61835","6558","21448","527","NA","2","legacy","1024","2","48000","-16","experiment","2","even","absent","91297","91297","NA","NA","1373","91280","219072","219589","1401","63255","69831","219589","220119","NA","219058","Fraction component detection task","104","65818","104","yes","1280"
"100","100","632.438095238","632.438095238","#808080","no","legacy","legacy","legacy","0","uniform","1","undefined","undefined","undefined","1","a","0","0","0","104","0","0","104","104","0","0","0","104","104","0","104","Thu May  3 10:05:57 2018","#757575","low","2","The main experiment item","yes","","exp2.osexp","/Users/tom/github/sft-fraction/exp2","Zapfino","Zapfino","no","mono","no","24","no","white","no","yes","800","legacy","104","104","0","/Users/tom/github/sft-fraction/exp2/data/subject-2b.csv","legacy","#757575","low","3","Jazzy James","3.1.9","0","a","NA","space","space","space","a","NA","588","NA","61835","6558","21448","588","NA","2","legacy","1024","2","48000","-16","experiment","2","even","absent","91297","91297","NA","NA","1373","91280","220196","220712","1401","63255","69831","220713","221304","NA","220181","Fraction component detection task","105","66406","105","yes","1280"
"100","100","632.103773585","632.103773585","#808080","no","legacy","legacy","legacy","0","uniform","1","undefined","undefined","undefined","1","l","0","0","0","105","0","0","105","105","0","0","0","105","105","0","105","Thu May  3 10:05:57 2018","#000000","high","6","The main experiment item","yes","","exp2.osexp","/Users/tom/github/sft-fraction/exp2","mono","Zapfino","no","mono","no","24","no","white","no","yes","800","legacy","105","105","0","/Users/tom/github/sft-fraction/exp2/data/subject-2b.csv","legacy","#757575","low","3","Jazzy James","3.1.9","0","l","NA","space","space","space","l","NA","597","NA","61835","6558","21448","597","NA","2","legacy","1024","2","48000","-16","experiment","2","even","present","91297","91297","NA","NA","1373","91280","221384","221904","1401","63255","69831","221904","222504","NA","221369","Fraction component detection task","106","67003","106","yes","1280"
"100","100","630.859813084","630.859813084","#808080","no","legacy","legacy","legacy","0","uniform","1","undefined","undefined","undefined","1","l","0","0","0","106","0","0","106","106","0","0","0","106","106","0","106","Thu May  3 10:05:57 2018","#757575","low","7","The main experiment item","yes","","exp2.osexp","/Users/tom/github/sft-fraction/exp2","Zapfino","mono","no","mono","no","24","no","white","no","yes","800","legacy","106","106","0","/Users/tom/github/sft-fraction/exp2/data/subject-2b.csv","legacy","#000000","high","4","Jazzy James","3.1.9","0","l","NA","space","space","space","l","NA","499","NA","61835","6558","21448","499","NA","2","legacy","1024","2","48000","-16","experiment","2","even","present","91297","91297","NA","NA","1373","91280","222590","223106","1401","63255","69831","223106","223608","NA","222576","Fraction component detection task","107","67502","107","yes","1280"
"100","100","630.018518519","630.018518519","#808080","no","legacy","legacy","legacy","0","uniform","1","undefined","undefined","undefined","1","a","0","0","0","107","0","0","107","107","0","0","0","107","107","0","107","Thu May  3 10:05:57 2018","#757575","low","2","The main experiment item","yes","","exp2.osexp","/Users/tom/github/sft-fraction/exp2","Zapfino","Zapfino","no","mono","no","24","no","white","no","yes","800","legacy","107","107","0","/Users/tom/github/sft-fraction/exp2/data/subject-2b.csv","legacy","#757575","low","2","Jazzy James","3.1.9","0","a","NA","space","space","space","a","NA","540","NA","61835","6558","21448","540","NA","2","legacy","1024","2","48000","-16","experiment","2","even","absent","91297","91297","NA","NA","1373","91280","223693","224209","1401","63255","69831","224209","224752","NA","223674","Fraction component detection task","108","68042","108","yes","1280"
"100","100","629.183486239","629.183486239","#808080","no","legacy","legacy","legacy","0","uniform","1","undefined","undefined","undefined","1","a","0","0","0","108","0","0","108","108","0","0","0","108","108","0","108","Thu May  3 10:05:57 2018","#000000","high","2","The main experiment item","yes","","exp2.osexp","/Users/tom/github/sft-fraction/exp2","mono","mono","no","mono","no","24","no","white","no","yes","800","legacy","108","108","0","/Users/tom/github/sft-fraction/exp2/data/subject-2b.csv","legacy","#000000","high","4","Jazzy James","3.1.9","0","a","NA","space","space","space","a","NA","539","NA","61835","6558","21448","539","NA","2","legacy","1024","2","48000","-16","experiment","2","even","absent","91297","91297","NA","NA","1373","91280","224836","225353","1401","63255","69831","225354","225897","NA","224817","Fraction component detection task","109","68581","109","yes","1280"
"100","100","628.572727273","628.572727273","#808080","no","legacy","legacy","legacy","0","uniform","1","undefined","undefined","undefined","1","l","0","0","0","109","0","0","109","109","0","0","0","109","109","0","109","Thu May  3 10:05:57 2018","#000000","high","7","The main experiment item","yes","","exp2.osexp","/Users/tom/github/sft-fraction/exp2","mono","mono","no","mono","no","24","no","white","no","yes","800","legacy","109","109","0","/Users/tom/github/sft-fraction/exp2/data/subject-2b.csv","legacy","#000000","high","4","Jazzy James","3.1.9","0","l","NA","space","space","space","l","NA","562","NA","61835","6558","21448","562","NA","2","legacy","1024","2","48000","-16","experiment","2","even","present","91297","91297","NA","NA","1373","91280","225981","226498","1401","63255","69831","226498","227063","NA","225961","Fraction component detection task","110","69143","110","yes","1280"
