"acc","accuracy","average_response_time","avg_rt","background","bidi","canvas_backend","clock_backend","color_backend","compensation","coordinates","correct","correct_instructions1","correct_instructions2","correct_instructions3","correct_keyboard_response","correct_response","count_block_loop","count_block_sequence","count_end_of_experiment","count_error","count_experiment","count_experimental_loop","count_fixation_dot","count_fraction","count_instructions1","count_instructions2","count_instructions3","count_keyboard_response","count_logger","count_rest","count_trial_sequence","datetime","denomColor","denomSalience","denominator","description","disable_garbage_collection","empty_column","experiment_file","experiment_path","fontDenom","fontNum","font_bold","font_family","font_italic","font_size","font_underline","foreground","form_clicks","fullscreen","height","keyboard_backend","live_row","live_row_block_loop","live_row_experimental_loop","logfile","mouse_backend","numColor","numSalience","numerator","opensesame_codename","opensesame_version","repeat_cycle","response","response_end_of_experiment","response_instructions1","response_instructions2","response_instructions3","response_keyboard_response","response_rest","response_time","response_time_end_of_experiment","response_time_instructions1","response_time_instructions2","response_time_instructions3","response_time_keyboard_response","response_time_rest","round_decimals","sampler_backend","sound_buf_size","sound_channels","sound_freq","sound_sample_size","start","subject_nr","subject_parity","target","time_block_loop","time_block_sequence","time_end_of_experiment","time_error","time_experiment","time_experimental_loop","time_fixation_dot","time_fraction","time_instructions1","time_instructions2","time_instructions3","time_keyboard_response","time_logger","time_rest","time_trial_sequence","title","total_correct","total_response_time","total_responses","uniform_coordinates","width"
"100","100","758","758","#808080","no","legacy","legacy","legacy","0","uniform","1","undefined","undefined","undefined","1","l","0","0","0","0","0","0","0","0","0","0","0","0","0","0","0","Tue May  1 09:34:31 2018","#000000","high","2","The main experiment item","yes","","exp2.osexp","/Users/tom/github/sft-fraction/exp2","mono","Zapfino","no","mono","no","24","no","white","no","yes","800","legacy","0","0","0","/Users/tom/github/sft-fraction/exp2/data/subject-1b.csv","legacy","#757575","low","8","Jazzy James","3.1.9","0","l","NA","space","space","space","l","NA","758","NA","22192","8391","3484","758","NA","2","legacy","1024","2","48000","-16","experiment","1","odd","present","35524","35524","NA","NA","1378","35507","35816","36332","1401","23610","32022","36332","37102","NA","35799","Fraction component detection task","1","758","1","yes","1280"
"100","100","658.5","658.5","#808080","no","legacy","legacy","legacy","0","uniform","1","undefined","undefined","undefined","1","a","0","0","0","1","0","0","1","1","0","0","0","1","1","0","1","Tue May  1 09:34:31 2018","#757575","low","2","The main experiment item","yes","","exp2.osexp","/Users/tom/github/sft-fraction/exp2","Zapfino","Zapfino","no","mono","no","24","no","white","no","yes","800","legacy","1","1","0","/Users/tom/github/sft-fraction/exp2/data/subject-1b.csv","legacy","#757575","low","3","Jazzy James","3.1.9","0","a","NA","space","space","space","a","NA","559","NA","22192","8391","3484","559","NA","2","legacy","1024","2","48000","-16","experiment","1","odd","absent","35524","35524","NA","NA","1378","35507","37218","37739","1401","23610","32022","37739","38300","NA","37196","Fraction component detection task","2","1317","2","yes","1280"
"100","100","608.333333333","608.333333333","#808080","no","legacy","legacy","legacy","0","uniform","1","undefined","undefined","undefined","1","a","0","0","0","2","0","0","2","2","0","0","0","2","2","0","2","Tue May  1 09:34:31 2018","#757575","low","3","The main experiment item","yes","","exp2.osexp","/Users/tom/github/sft-fraction/exp2","Zapfino","Zapfino","no","mono","no","24","no","white","no","yes","800","legacy","2","2","0","/Users/tom/github/sft-fraction/exp2/data/subject-1b.csv","legacy","#757575","low","3","Jazzy James","3.1.9","0","a","NA","space","space","space","a","NA","508","NA","22192","8391","3484","508","NA","2","legacy","1024","2","48000","-16","experiment","1","odd","absent","35524","35524","NA","NA","1378","35507","38392","38910","1401","23610","32022","38910","39420","NA","38375","Fraction component detection task","3","1825","3","yes","1280"
"100","100","576.75","576.75","#808080","no","legacy","legacy","legacy","0","uniform","1","undefined","undefined","undefined","1","a","0","0","0","3","0","0","3","3","0","0","0","3","3","0","3","Tue May  1 09:34:31 2018","#757575","low","2","The main experiment item","yes","","exp2.osexp","/Users/tom/github/sft-fraction/exp2","Zapfino","Zapfino","no","mono","no","24","no","white","no","yes","800","legacy","3","3","0","/Users/tom/github/sft-fraction/exp2/data/subject-1b.csv","legacy","#757575","low","3","Jazzy James","3.1.9","0","a","NA","space","space","space","a","NA","482","NA","22192","8391","3484","482","NA","2","legacy","1024","2","48000","-16","experiment","1","odd","absent","35524","35524","NA","NA","1378","35507","39511","40032","1401","23610","32022","40032","40516","NA","39494","Fraction component detection task","4","2307","4","yes","1280"
"100","100","558.6","558.6","#808080","no","legacy","legacy","legacy","0","uniform","1","undefined","undefined","undefined","1","a","0","0","0","4","0","0","4","4","0","0","0","4","4","0","4","Tue May  1 09:34:31 2018","#757575","low","2","The main experiment item","yes","","exp2.osexp","/Users/tom/github/sft-fraction/exp2","Zapfino","mono","no","mono","no","24","no","white","no","yes","800","legacy","4","4","0","/Users/tom/github/sft-fraction/exp2/data/subject-1b.csv","legacy","#000000","high","3","Jazzy James","3.1.9","0","a","NA","space","space","space","a","NA","486","NA","22192","8391","3484","486","NA","2","legacy","1024","2","48000","-16","experiment","1","odd","absent","35524","35524","NA","NA","1378","35507","40600","41116","1401","23610","32022","41116","41604","NA","40580","Fraction component detection task","5","2793","5","yes","1280"
"100","100","557.5","557.5","#808080","no","legacy","legacy","legacy","0","uniform","1","undefined","undefined","undefined","1","l","0","0","0","5","0","0","5","5","0","0","0","5","5","0","5","Tue May  1 09:34:31 2018","#757575","low","4","The main experiment item","yes","","exp2.osexp","/Users/tom/github/sft-fraction/exp2","Zapfino","mono","no","mono","no","24","no","white","no","yes","800","legacy","5","5","0","/Users/tom/github/sft-fraction/exp2/data/subject-1b.csv","legacy","#000000","high","7","Jazzy James","3.1.9","0","l","NA","space","space","space","l","NA","552","NA","22192","8391","3484","552","NA","2","legacy","1024","2","48000","-16","experiment","1","odd","present","35524","35524","NA","NA","1378","35507","41694","42210","1401","23610","32022","42210","42764","NA","41675","Fraction component detection task","6","3345","6","yes","1280"
"100","100","544.285714286","544.285714286","#808080","no","legacy","legacy","legacy","0","uniform","1","undefined","undefined","undefined","1","l","0","0","0","6","0","0","6","6","0","0","0","6","6","0","6","Tue May  1 09:34:31 2018","#757575","low","3","The main experiment item","yes","","exp2.osexp","/Users/tom/github/sft-fraction/exp2","Zapfino","mono","no","mono","no","24","no","white","no","yes","800","legacy","6","6","0","/Users/tom/github/sft-fraction/exp2/data/subject-1b.csv","legacy","#000000","high","6","Jazzy James","3.1.9","0","l","NA","space","space","space","l","NA","465","NA","22192","8391","3484","465","NA","2","legacy","1024","2","48000","-16","experiment","1","odd","present","35524","35524","NA","NA","1378","35507","42841","43361","1401","23610","32022","43361","43828","NA","42826","Fraction component detection task","7","3810","7","yes","1280"
"87.5","87.5","542.875","542.875","#808080","no","legacy","legacy","legacy","0","uniform","0","undefined","undefined","undefined","0","l","0","0","0","7","0","0","7","7","0","0","0","7","7","0","7","Tue May  1 09:34:31 2018","#757575","low","2","The main experiment item","yes","","exp2.osexp","/Users/tom/github/sft-fraction/exp2","Zapfino","Zapfino","no","mono","no","24","no","white","no","yes","800","legacy","7","7","0","/Users/tom/github/sft-fraction/exp2/data/subject-1b.csv","legacy","#757575","low","8","Jazzy James","3.1.9","0","a","NA","space","space","space","a","NA","533","NA","22192","8391","3484","533","NA","2","legacy","1024","2","48000","-16","experiment","1","odd","present","35524","35524","NA","NA","1378","35507","43913","44429","1401","23610","32022","44429","44964","NA","43893","Fraction component detection task","7","4343","8","yes","1280"
"88.8888888889","88.8888888889","545.333333333","545.333333333","#808080","no","legacy","legacy","legacy","0","uniform","1","undefined","undefined","undefined","1","a","0","0","0","8","0","0","8","8","0","0","0","8","8","0","8","Tue May  1 09:34:31 2018","#757575","low","2","The main experiment item","yes","","exp2.osexp","/Users/tom/github/sft-fraction/exp2","Zapfino","mono","no","mono","no","24","no","white","no","yes","800","legacy","8","8","0","/Users/tom/github/sft-fraction/exp2/data/subject-1b.csv","legacy","#000000","high","3","Jazzy James","3.1.9","0","a","NA","space","space","space","a","NA","565","NA","22192","8391","3484","565","NA","2","legacy","1024","2","48000","-16","experiment","1","odd","absent","35524","35524","NA","44983","1378","35507","46065","46581","1401","23610","32022","46581","47148","NA","46047","Fraction component detection task","8","4908","9","yes","1280"
"90","90","539.6","539.6","#808080","no","legacy","legacy","legacy","0","uniform","1","undefined","undefined","undefined","1","l","0","0","0","9","0","0","9","9","0","0","0","9","9","0","9","Tue May  1 09:34:31 2018","#000000","high","4","The main experiment item","yes","","exp2.osexp","/Users/tom/github/sft-fraction/exp2","mono","mono","no","mono","no","24","no","white","no","yes","800","legacy","9","9","0","/Users/tom/github/sft-fraction/exp2/data/subject-1b.csv","legacy","#000000","high","6","Jazzy James","3.1.9","0","l","NA","space","space","space","l","NA","488","NA","22192","8391","3484","488","NA","2","legacy","1024","2","48000","-16","experiment","1","odd","present","35524","35524","NA","44983","1378","35507","47230","47746","1401","23610","32022","47746","48236","NA","47215","Fraction component detection task","9","5396","10","yes","1280"
"90.9090909091","90.9090909091","541.727272727","541.727272727","#808080","no","legacy","legacy","legacy","0","uniform","1","undefined","undefined","undefined","1","a","0","0","0","10","0","0","10","10","0","0","0","10","10","0","10","Tue May  1 09:34:31 2018","#000000","high","3","The main experiment item","yes","","exp2.osexp","/Users/tom/github/sft-fraction/exp2","mono","mono","no","mono","no","24","no","white","no","yes","800","legacy","10","10","0","/Users/tom/github/sft-fraction/exp2/data/subject-1b.csv","legacy","#000000","high","4","Jazzy James","3.1.9","0","a","NA","space","space","space","a","NA","563","NA","22192","8391","3484","563","NA","2","legacy","1024","2","48000","-16","experiment","1","odd","absent","35524","35524","NA","44983","1378","35507","48320","48840","1401","23610","32022","48840","49404","NA","48304","Fraction component detection task","10","5959","11","yes","1280"
"91.6666666667","91.6666666667","537.666666667","537.666666667","#808080","no","legacy","legacy","legacy","0","uniform","1","undefined","undefined","undefined","1","a","0","0","0","11","0","0","11","11","0","0","0","11","11","0","11","Tue May  1 09:34:31 2018","#000000","high","3","The main experiment item","yes","","exp2.osexp","/Users/tom/github/sft-fraction/exp2","mono","mono","no","mono","no","24","no","white","no","yes","800","legacy","11","11","0","/Users/tom/github/sft-fraction/exp2/data/subject-1b.csv","legacy","#000000","high","2","Jazzy James","3.1.9","0","a","NA","space","space","space","a","NA","493","NA","22192","8391","3484","493","NA","2","legacy","1024","2","48000","-16","experiment","1","odd","absent","35524","35524","NA","44983","1378","35507","49490","50005","1401","23610","32022","50006","50500","NA","49471","Fraction component detection task","11","6452","12","yes","1280"
"92.3076923077","92.3076923077","529.076923077","529.076923077","#808080","no","legacy","legacy","legacy","0","uniform","1","undefined","undefined","undefined","1","a","0","0","0","12","0","0","12","12","0","0","0","12","12","0","12","Tue May  1 09:34:31 2018","#000000","high","3","The main experiment item","yes","","exp2.osexp","/Users/tom/github/sft-fraction/exp2","mono","mono","no","mono","no","24","no","white","no","yes","800","legacy","12","12","0","/Users/tom/github/sft-fraction/exp2/data/subject-1b.csv","legacy","#000000","high","2","Jazzy James","3.1.9","0","a","NA","space","space","space","a","NA","426","NA","22192","8391","3484","426","NA","2","legacy","1024","2","48000","-16","experiment","1","odd","absent","35524","35524","NA","44983","1378","35507","50581","51097","1401","23610","32022","51097","51524","NA","50565","Fraction component detection task","12","6878","13","yes","1280"
"92.8571428571","92.8571428571","526.785714286","526.785714286","#808080","no","legacy","legacy","legacy","0","uniform","1","undefined","undefined","undefined","1","l","0","0","0","13","0","0","13","13","0","0","0","13","13","0","13","Tue May  1 09:34:31 2018","#000000","high","3","The main experiment item","yes","","exp2.osexp","/Users/tom/github/sft-fraction/exp2","mono","mono","no","mono","no","24","no","white","no","yes","800","legacy","13","13","0","/Users/tom/github/sft-fraction/exp2/data/subject-1b.csv","legacy","#000000","high","6","Jazzy James","3.1.9","0","l","NA","space","space","space","l","NA","497","NA","22192","8391","3484","497","NA","2","legacy","1024","2","48000","-16","experiment","1","odd","present","35524","35524","NA","44983","1378","35507","51605","52122","1401","23610","32022","52122","52620","NA","51589","Fraction component detection task","13","7375","14","yes","1280"
"93.3333333333","93.3333333333","527.733333333","527.733333333","#808080","no","legacy","legacy","legacy","0","uniform","1","undefined","undefined","undefined","1","l","0","0","0","14","0","0","14","14","0","0","0","14","14","0","14","Tue May  1 09:34:31 2018","#000000","high","7","The main experiment item","yes","","exp2.osexp","/Users/tom/github/sft-fraction/exp2","mono","Zapfino","no","mono","no","24","no","white","no","yes","800","legacy","14","14","0","/Users/tom/github/sft-fraction/exp2/data/subject-1b.csv","legacy","#757575","low","3","Jazzy James","3.1.9","0","l","NA","space","space","space","l","NA","541","NA","22192","8391","3484","541","NA","2","legacy","1024","2","48000","-16","experiment","1","odd","present","35524","35524","NA","44983","1378","35507","52704","53221","1401","23610","32022","53222","53765","NA","52689","Fraction component detection task","14","7916","15","yes","1280"
"93.75","93.75","529.375","529.375","#808080","no","legacy","legacy","legacy","0","uniform","1","undefined","undefined","undefined","1","l","0","0","0","15","0","0","15","15","0","0","0","15","15","0","15","Tue May  1 09:34:31 2018","#000000","high","6","The main experiment item","yes","","exp2.osexp","/Users/tom/github/sft-fraction/exp2","mono","mono","no","mono","no","24","no","white","no","yes","800","legacy","15","15","0","/Users/tom/github/sft-fraction/exp2/data/subject-1b.csv","legacy","#000000","high","4","Jazzy James","3.1.9","0","l","NA","space","space","space","l","NA","554","NA","22192","8391","3484","554","NA","2","legacy","1024","2","48000","-16","experiment","1","odd","present","35524","35524","NA","44983","1378","35507","53851","54369","1401","23610","32022","54369","54925","NA","53831","Fraction component detection task","15","8470","16","yes","1280"
"94.1176470588","94.1176470588","530.588235294","530.588235294","#808080","no","legacy","legacy","legacy","0","uniform","1","undefined","undefined","undefined","1","l","0","0","0","16","0","0","16","16","0","0","0","16","16","0","16","Tue May  1 09:34:31 2018","#000000","high","8","The main experiment item","yes","","exp2.osexp","/Users/tom/github/sft-fraction/exp2","mono","Zapfino","no","mono","no","24","no","white","no","yes","800","legacy","16","16","0","/Users/tom/github/sft-fraction/exp2/data/subject-1b.csv","legacy","#757575","low","2","Jazzy James","3.1.9","0","l","NA","space","space","space","l","NA","550","NA","22192","8391","3484","550","NA","2","legacy","1024","2","48000","-16","experiment","1","odd","present","35524","35524","NA","44983","1378","35507","55003","55524","1401","23610","32022","55525","56077","NA","54990","Fraction component detection task","16","9020","17","yes","1280"
"94.4444444444","94.4444444444","532.166666667","532.166666667","#808080","no","legacy","legacy","legacy","0","uniform","1","undefined","undefined","undefined","1","l","0","0","0","17","0","0","17","17","0","0","0","17","17","0","17","Tue May  1 09:34:31 2018","#757575","low","2","The main experiment item","yes","","exp2.osexp","/Users/tom/github/sft-fraction/exp2","Zapfino","mono","no","mono","no","24","no","white","no","yes","800","legacy","17","17","0","/Users/tom/github/sft-fraction/exp2/data/subject-1b.csv","legacy","#000000","high","7","Jazzy James","3.1.9","0","l","NA","space","space","space","l","NA","559","NA","22192","8391","3484","559","NA","2","legacy","1024","2","48000","-16","experiment","1","odd","present","35524","35524","NA","44983","1378","35507","56159","56676","1401","23610","32022","56676","57237","NA","56143","Fraction component detection task","17","9579","18","yes","1280"
"94.7368421053","94.7368421053","534.473684211","534.473684211","#808080","no","legacy","legacy","legacy","0","uniform","1","undefined","undefined","undefined","1","l","0","0","0","18","0","0","18","18","0","0","0","18","18","0","18","Tue May  1 09:34:31 2018","#000000","high","8","The main experiment item","yes","","exp2.osexp","/Users/tom/github/sft-fraction/exp2","mono","Zapfino","no","mono","no","24","no","white","no","yes","800","legacy","18","18","0","/Users/tom/github/sft-fraction/exp2/data/subject-1b.csv","legacy","#757575","low","4","Jazzy James","3.1.9","0","l","NA","space","space","space","l","NA","576","NA","22192","8391","3484","576","NA","2","legacy","1024","2","48000","-16","experiment","1","odd","present","35524","35524","NA","44983","1378","35507","57319","57835","1401","23610","32022","57835","58414","NA","57304","Fraction component detection task","18","10155","19","yes","1280"
"95","95","536.3","536.3","#808080","no","legacy","legacy","legacy","0","uniform","1","undefined","undefined","undefined","1","a","0","0","0","19","0","0","19","19","0","0","0","19","19","0","19","Tue May  1 09:34:31 2018","#757575","low","3","The main experiment item","yes","","exp2.osexp","/Users/tom/github/sft-fraction/exp2","Zapfino","mono","no","mono","no","24","no","white","no","yes","800","legacy","19","19","0","/Users/tom/github/sft-fraction/exp2/data/subject-1b.csv","legacy","#000000","high","2","Jazzy James","3.1.9","0","a","NA","space","space","space","a","NA","571","NA","22192","8391","3484","571","NA","2","legacy","1024","2","48000","-16","experiment","1","odd","absent","35524","35524","NA","44983","1378","35507","58499","59016","1401","23610","32022","59016","59589","NA","58484","Fraction component detection task","19","10726","20","yes","1280"
"95.2380952381","95.2380952381","538.19047619","538.19047619","#808080","no","legacy","legacy","legacy","0","uniform","1","undefined","undefined","undefined","1","l","0","0","0","20","0","0","20","20","0","0","0","20","20","0","20","Tue May  1 09:34:31 2018","#757575","low","2","The main experiment item","yes","","exp2.osexp","/Users/tom/github/sft-fraction/exp2","Zapfino","mono","no","mono","no","24","no","white","no","yes","800","legacy","20","20","0","/Users/tom/github/sft-fraction/exp2/data/subject-1b.csv","legacy","#000000","high","8","Jazzy James","3.1.9","0","l","NA","space","space","space","l","NA","576","NA","22192","8391","3484","576","NA","2","legacy","1024","2","48000","-16","experiment","1","odd","present","35524","35524","NA","44983","1378","35507","59727","60243","1401","23610","32022","60243","60821","NA","59710","Fraction component detection task","20","11302","21","yes","1280"
"95.4545454545","95.4545454545","539.227272727","539.227272727","#808080","no","legacy","legacy","legacy","0","uniform","1","undefined","undefined","undefined","1","l","0","0","0","21","0","0","21","21","0","0","0","21","21","0","21","Tue May  1 09:34:31 2018","#757575","low","6","The main experiment item","yes","","exp2.osexp","/Users/tom/github/sft-fraction/exp2","Zapfino","mono","no","mono","no","24","no","white","no","yes","800","legacy","21","21","0","/Users/tom/github/sft-fraction/exp2/data/subject-1b.csv","legacy","#000000","high","7","Jazzy James","3.1.9","0","l","NA","space","space","space","l","NA","561","NA","22192","8391","3484","561","NA","2","legacy","1024","2","48000","-16","experiment","1","odd","present","35524","35524","NA","44983","1378","35507","60907","61426","1401","23610","32022","61426","61989","NA","60887","Fraction component detection task","21","11863","22","yes","1280"
"95.652173913","95.652173913","537.47826087","537.47826087","#808080","no","legacy","legacy","legacy","0","uniform","1","undefined","undefined","undefined","1","l","0","0","0","22","0","0","22","22","0","0","0","22","22","0","22","Tue May  1 09:34:31 2018","#757575","low","6","The main experiment item","yes","","exp2.osexp","/Users/tom/github/sft-fraction/exp2","Zapfino","Zapfino","no","mono","no","24","no","white","no","yes","800","legacy","22","22","0","/Users/tom/github/sft-fraction/exp2/data/subject-1b.csv","legacy","#757575","low","7","Jazzy James","3.1.9","0","l","NA","space","space","space","l","NA","499","NA","22192","8391","3484","499","NA","2","legacy","1024","2","48000","-16","experiment","1","odd","present","35524","35524","NA","44983","1378","35507","62075","62591","1401","23610","32022","62592","63093","NA","62054","Fraction component detection task","22","12362","23","yes","1280"
"95.8333333333","95.8333333333","537.291666667","537.291666667","#808080","no","legacy","legacy","legacy","0","uniform","1","undefined","undefined","undefined","1","l","0","0","0","23","0","0","23","23","0","0","0","23","23","0","23","Tue May  1 09:34:31 2018","#757575","low","4","The main experiment item","yes","","exp2.osexp","/Users/tom/github/sft-fraction/exp2","Zapfino","Zapfino","no","mono","no","24","no","white","no","yes","800","legacy","23","23","0","/Users/tom/github/sft-fraction/exp2/data/subject-1b.csv","legacy","#757575","low","6","Jazzy James","3.1.9","0","l","NA","space","space","space","l","NA","533","NA","22192","8391","3484","533","NA","2","legacy","1024","2","48000","-16","experiment","1","odd","present","35524","35524","NA","44983","1378","35507","63178","63694","1401","23610","32022","63694","64229","NA","63161","Fraction component detection task","23","12895","24","yes","1280"
"96","96","548.76","548.76","#808080","no","legacy","legacy","legacy","0","uniform","1","undefined","undefined","undefined","1","a","0","0","0","24","0","0","24","24","0","0","0","24","24","0","24","Tue May  1 09:34:31 2018","#757575","low","2","The main experiment item","yes","","exp2.osexp","/Users/tom/github/sft-fraction/exp2","Zapfino","mono","no","mono","no","24","no","white","no","yes","800","legacy","24","24","0","/Users/tom/github/sft-fraction/exp2/data/subject-1b.csv","legacy","#000000","high","4","Jazzy James","3.1.9","0","a","NA","space","space","space","a","NA","824","NA","22192","8391","3484","824","NA","2","legacy","1024","2","48000","-16","experiment","1","odd","absent","35524","35524","NA","44983","1378","35507","64311","64827","1401","23610","32022","64827","65653","NA","64295","Fraction component detection task","24","13719","25","yes","1280"
"96.1538461538","96.1538461538","555.615384615","555.615384615","#808080","no","legacy","legacy","legacy","0","uniform","1","undefined","undefined","undefined","1","l","0","0","0","25","0","0","25","25","0","0","0","25","25","0","25","Tue May  1 09:34:31 2018","#757575","low","6","The main experiment item","yes","","exp2.osexp","/Users/tom/github/sft-fraction/exp2","Zapfino","mono","no","mono","no","24","no","white","no","yes","800","legacy","25","25","0","/Users/tom/github/sft-fraction/exp2/data/subject-1b.csv","legacy","#000000","high","6","Jazzy James","3.1.9","0","l","NA","space","space","space","l","NA","727","NA","22192","8391","3484","727","NA","2","legacy","1024","2","48000","-16","experiment","1","odd","present","35524","35524","NA","44983","1378","35507","65737","66253","1401","23610","32022","66253","66981","NA","65719","Fraction component detection task","25","14446","26","yes","1280"
"96.2962962963","96.2962962963","555.740740741","555.740740741","#808080","no","legacy","legacy","legacy","0","uniform","1","undefined","undefined","undefined","1","a","0","0","0","26","0","0","26","26","0","0","0","26","26","0","26","Tue May  1 09:34:31 2018","#757575","low","4","The main experiment item","yes","","exp2.osexp","/Users/tom/github/sft-fraction/exp2","Zapfino","mono","no","mono","no","24","no","white","no","yes","800","legacy","26","26","0","/Users/tom/github/sft-fraction/exp2/data/subject-1b.csv","legacy","#000000","high","3","Jazzy James","3.1.9","0","a","NA","space","space","space","a","NA","559","NA","22192","8391","3484","559","NA","2","legacy","1024","2","48000","-16","experiment","1","odd","absent","35524","35524","NA","44983","1378","35507","67064","67581","1401","23610","32022","67581","68142","NA","67049","Fraction component detection task","26","15005","27","yes","1280"
"96.4285714286","96.4285714286","561.392857143","561.392857143","#808080","no","legacy","legacy","legacy","0","uniform","1","undefined","undefined","undefined","1","l","0","0","0","27","0","0","27","27","0","0","0","27","27","0","27","Tue May  1 09:34:31 2018","#757575","low","2","The main experiment item","yes","","exp2.osexp","/Users/tom/github/sft-fraction/exp2","Zapfino","mono","no","mono","no","24","no","white","no","yes","800","legacy","27","27","0","/Users/tom/github/sft-fraction/exp2/data/subject-1b.csv","legacy","#000000","high","6","Jazzy James","3.1.9","0","l","NA","space","space","space","l","NA","714","NA","22192","8391","3484","714","NA","2","legacy","1024","2","48000","-16","experiment","1","odd","present","35524","35524","NA","44983","1378","35507","68227","68746","1401","23610","32022","68746","69462","NA","68211","Fraction component detection task","27","15719","28","yes","1280"
"96.5517241379","96.5517241379","559.931034483","559.931034483","#808080","no","legacy","legacy","legacy","0","uniform","1","undefined","undefined","undefined","1","a","0","0","0","28","0","0","28","28","0","0","0","28","28","0","28","Tue May  1 09:34:31 2018","#757575","low","4","The main experiment item","yes","","exp2.osexp","/Users/tom/github/sft-fraction/exp2","Zapfino","mono","no","mono","no","24","no","white","no","yes","800","legacy","28","28","0","/Users/tom/github/sft-fraction/exp2/data/subject-1b.csv","legacy","#000000","high","3","Jazzy James","3.1.9","0","a","NA","space","space","space","a","NA","519","NA","22192","8391","3484","519","NA","2","legacy","1024","2","48000","-16","experiment","1","odd","absent","35524","35524","NA","44983","1378","35507","69550","70069","1401","23610","32022","70069","70590","NA","69530","Fraction component detection task","28","16238","29","yes","1280"
"93.3333333333","93.3333333333","558.566666667","558.566666667","#808080","no","legacy","legacy","legacy","0","uniform","0","undefined","undefined","undefined","0","a","0","0","0","29","0","0","29","29","0","0","0","29","29","0","29","Tue May  1 09:34:31 2018","#000000","high","4","The main experiment item","yes","","exp2.osexp","/Users/tom/github/sft-fraction/exp2","mono","mono","no","mono","no","24","no","white","no","yes","800","legacy","29","29","0","/Users/tom/github/sft-fraction/exp2/data/subject-1b.csv","legacy","#000000","high","4","Jazzy James","3.1.9","0","l","NA","space","space","space","l","NA","519","NA","22192","8391","3484","519","NA","2","legacy","1024","2","48000","-16","experiment","1","odd","absent","35524","35524","NA","44983","1378","35507","70673","71189","1401","23610","32022","71189","71710","NA","70655","Fraction component detection task","28","16757","30","yes","1280"
"93.5483870968","93.5483870968","569.903225806","569.903225806","#808080","no","legacy","legacy","legacy","0","uniform","1","undefined","undefined","undefined","1","a","0","0","0","30","0","0","30","30","0","0","0","30","30","0","30","Tue May  1 09:34:31 2018","#757575","low","2","The main experiment item","yes","","exp2.osexp","/Users/tom/github/sft-fraction/exp2","Zapfino","Zapfino","no","mono","no","24","no","white","no","yes","800","legacy","30","30","0","/Users/tom/github/sft-fraction/exp2/data/subject-1b.csv","legacy","#757575","low","2","Jazzy James","3.1.9","0","a","NA","space","space","space","a","NA","910","NA","22192","8391","3484","910","NA","2","legacy","1024","2","48000","-16","experiment","1","odd","absent","35524","35524","NA","71728","1378","35507","72809","73325","1401","23610","32022","73326","74238","NA","72793","Fraction component detection task","29","17667","31","yes","1280"
"93.75","93.75","566.8125","566.8125","#808080","no","legacy","legacy","legacy","0","uniform","1","undefined","undefined","undefined","1","l","0","0","0","31","0","0","31","31","0","0","0","31","31","0","31","Tue May  1 09:34:31 2018","#757575","low","7","The main experiment item","yes","","exp2.osexp","/Users/tom/github/sft-fraction/exp2","Zapfino","mono","no","mono","no","24","no","white","no","yes","800","legacy","31","31","0","/Users/tom/github/sft-fraction/exp2/data/subject-1b.csv","legacy","#000000","high","7","Jazzy James","3.1.9","0","l","NA","space","space","space","l","NA","471","NA","22192","8391","3484","471","NA","2","legacy","1024","2","48000","-16","experiment","1","odd","present","35524","35524","NA","71728","1378","35507","74320","74837","1401","23610","32022","74837","75310","NA","74302","Fraction component detection task","30","18138","32","yes","1280"
"93.9393939394","93.9393939394","564.757575758","564.757575758","#808080","no","legacy","legacy","legacy","0","uniform","1","undefined","undefined","undefined","1","a","0","0","0","32","0","0","32","32","0","0","0","32","32","0","32","Tue May  1 09:34:31 2018","#757575","low","4","The main experiment item","yes","","exp2.osexp","/Users/tom/github/sft-fraction/exp2","Zapfino","Zapfino","no","mono","no","24","no","white","no","yes","800","legacy","32","32","0","/Users/tom/github/sft-fraction/exp2/data/subject-1b.csv","legacy","#757575","low","3","Jazzy James","3.1.9","0","a","NA","space","space","space","a","NA","499","NA","22192","8391","3484","499","NA","2","legacy","1024","2","48000","-16","experiment","1","odd","absent","35524","35524","NA","71728","1378","35507","75392","75912","1401","23610","32022","75913","76414","NA","75375","Fraction component detection task","31","18637","33","yes","1280"
"94.1176470588","94.1176470588","564.941176471","564.941176471","#808080","no","legacy","legacy","legacy","0","uniform","1","undefined","undefined","undefined","1","l","0","0","0","33","0","0","33","33","0","0","0","33","33","0","33","Tue May  1 09:34:31 2018","#000000","high","6","The main experiment item","yes","","exp2.osexp","/Users/tom/github/sft-fraction/exp2","mono","Zapfino","no","mono","no","24","no","white","no","yes","800","legacy","33","33","0","/Users/tom/github/sft-fraction/exp2/data/subject-1b.csv","legacy","#757575","low","4","Jazzy James","3.1.9","0","l","NA","space","space","space","l","NA","571","NA","22192","8391","3484","571","NA","2","legacy","1024","2","48000","-16","experiment","1","odd","present","35524","35524","NA","71728","1378","35507","76500","77016","1401","23610","32022","77017","77591","NA","76484","Fraction component detection task","32","19208","34","yes","1280"
"94.2857142857","94.2857142857","563.685714286","563.685714286","#808080","no","legacy","legacy","legacy","0","uniform","1","undefined","undefined","undefined","1","l","0","0","0","34","0","0","34","34","0","0","0","34","34","0","34","Tue May  1 09:34:31 2018","#000000","high","8","The main experiment item","yes","","exp2.osexp","/Users/tom/github/sft-fraction/exp2","mono","mono","no","mono","no","24","no","white","no","yes","800","legacy","34","34","0","/Users/tom/github/sft-fraction/exp2/data/subject-1b.csv","legacy","#000000","high","2","Jazzy James","3.1.9","0","l","NA","space","space","space","l","NA","521","NA","22192","8391","3484","521","NA","2","legacy","1024","2","48000","-16","experiment","1","odd","present","35524","35524","NA","71728","1378","35507","77678","78195","1401","23610","32022","78195","78719","NA","77658","Fraction component detection task","33","19729","35","yes","1280"
"94.4444444444","94.4444444444","565.972222222","565.972222222","#808080","no","legacy","legacy","legacy","0","uniform","1","undefined","undefined","undefined","1","l","0","0","0","35","0","0","35","35","0","0","0","35","35","0","35","Tue May  1 09:34:31 2018","#000000","high","2","The main experiment item","yes","","exp2.osexp","/Users/tom/github/sft-fraction/exp2","mono","Zapfino","no","mono","no","24","no","white","no","yes","800","legacy","35","35","0","/Users/tom/github/sft-fraction/exp2/data/subject-1b.csv","legacy","#757575","low","7","Jazzy James","3.1.9","0","l","NA","space","space","space","l","NA","646","NA","22192","8391","3484","646","NA","2","legacy","1024","2","48000","-16","experiment","1","odd","present","35524","35524","NA","71728","1378","35507","78801","79317","1401","23610","32022","79318","79966","NA","78786","Fraction component detection task","34","20375","36","yes","1280"
"94.5945945946","94.5945945946","566.891891892","566.891891892","#808080","no","legacy","legacy","legacy","0","uniform","1","undefined","undefined","undefined","1","a","0","0","0","36","0","0","36","36","0","0","0","36","36","0","36","Tue May  1 09:34:31 2018","#757575","low","4","The main experiment item","yes","","exp2.osexp","/Users/tom/github/sft-fraction/exp2","Zapfino","mono","no","mono","no","24","no","white","no","yes","800","legacy","36","36","0","/Users/tom/github/sft-fraction/exp2/data/subject-1b.csv","legacy","#000000","high","4","Jazzy James","3.1.9","0","a","NA","space","space","space","a","NA","600","NA","22192","8391","3484","600","NA","2","legacy","1024","2","48000","-16","experiment","1","odd","absent","35524","35524","NA","71728","1378","35507","80047","80564","1401","23610","32022","80565","81168","NA","80032","Fraction component detection task","35","20975","37","yes","1280"
"94.7368421053","94.7368421053","567.078947368","567.078947368","#808080","no","legacy","legacy","legacy","0","uniform","1","undefined","undefined","undefined","1","a","0","0","0","37","0","0","37","37","0","0","0","37","37","0","37","Tue May  1 09:34:31 2018","#757575","low","4","The main experiment item","yes","","exp2.osexp","/Users/tom/github/sft-fraction/exp2","Zapfino","mono","no","mono","no","24","no","white","no","yes","800","legacy","37","37","0","/Users/tom/github/sft-fraction/exp2/data/subject-1b.csv","legacy","#000000","high","2","Jazzy James","3.1.9","0","a","NA","space","space","space","a","NA","574","NA","22192","8391","3484","574","NA","2","legacy","1024","2","48000","-16","experiment","1","odd","absent","35524","35524","NA","71728","1378","35507","81258","81774","1401","23610","32022","81774","82350","NA","81238","Fraction component detection task","36","21549","38","yes","1280"
"94.8717948718","94.8717948718","567.128205128","567.128205128","#808080","no","legacy","legacy","legacy","0","uniform","1","undefined","undefined","undefined","1","l","0","0","0","38","0","0","38","38","0","0","0","38","38","0","38","Tue May  1 09:34:31 2018","#757575","low","7","The main experiment item","yes","","exp2.osexp","/Users/tom/github/sft-fraction/exp2","Zapfino","mono","no","mono","no","24","no","white","no","yes","800","legacy","38","38","0","/Users/tom/github/sft-fraction/exp2/data/subject-1b.csv","legacy","#000000","high","8","Jazzy James","3.1.9","0","l","NA","space","space","space","l","NA","569","NA","22192","8391","3484","569","NA","2","legacy","1024","2","48000","-16","experiment","1","odd","present","35524","35524","NA","71728","1378","35507","82432","82948","1401","23610","32022","82948","83519","NA","82417","Fraction component detection task","37","22118","39","yes","1280"
"95","95","565.375","565.375","#808080","no","legacy","legacy","legacy","0","uniform","1","undefined","undefined","undefined","1","a","0","0","0","39","0","0","39","39","0","0","0","39","39","0","39","Tue May  1 09:34:31 2018","#000000","high","3","The main experiment item","yes","","exp2.osexp","/Users/tom/github/sft-fraction/exp2","mono","mono","no","mono","no","24","no","white","no","yes","800","legacy","39","39","0","/Users/tom/github/sft-fraction/exp2/data/subject-1b.csv","legacy","#000000","high","2","Jazzy James","3.1.9","0","a","NA","space","space","space","a","NA","497","NA","22192","8391","3484","497","NA","2","legacy","1024","2","48000","-16","experiment","1","odd","absent","35524","35524","NA","71728","1378","35507","83604","84124","1401","23610","32022","84124","84623","NA","83584","Fraction component detection task","38","22615","40","yes","1280"
"95.1219512195","95.1219512195","567.829268293","567.829268293","#808080","no","legacy","legacy","legacy","0","uniform","1","undefined","undefined","undefined","1","l","0","0","0","40","0","0","40","40","0","0","0","40","40","0","40","Tue May  1 09:34:31 2018","#000000","high","3","The main experiment item","yes","","exp2.osexp","/Users/tom/github/sft-fraction/exp2","mono","Zapfino","no","mono","no","24","no","white","no","yes","800","legacy","40","40","0","/Users/tom/github/sft-fraction/exp2/data/subject-1b.csv","legacy","#757575","low","6","Jazzy James","3.1.9","0","l","NA","space","space","space","l","NA","666","NA","22192","8391","3484","666","NA","2","legacy","1024","2","48000","-16","experiment","1","odd","present","35524","35524","NA","71728","1378","35507","84708","85226","1401","23610","32022","85227","85895","NA","84688","Fraction component detection task","39","23281","41","yes","1280"
"95.2380952381","95.2380952381","566.857142857","566.857142857","#808080","no","legacy","legacy","legacy","0","uniform","1","undefined","undefined","undefined","1","l","0","0","0","41","0","0","41","41","0","0","0","41","41","0","41","Tue May  1 09:34:31 2018","#757575","low","6","The main experiment item","yes","","exp2.osexp","/Users/tom/github/sft-fraction/exp2","Zapfino","mono","no","mono","no","24","no","white","no","yes","800","legacy","41","41","0","/Users/tom/github/sft-fraction/exp2/data/subject-1b.csv","legacy","#000000","high","3","Jazzy James","3.1.9","0","l","NA","space","space","space","l","NA","527","NA","22192","8391","3484","527","NA","2","legacy","1024","2","48000","-16","experiment","1","odd","present","35524","35524","NA","71728","1378","35507","85973","86493","1401","23610","32022","86494","87023","NA","85958","Fraction component detection task","40","23808","42","yes","1280"
"95.3488372093","95.3488372093","565.348837209","565.348837209","#808080","no","legacy","legacy","legacy","0","uniform","1","undefined","undefined","undefined","1","a","0","0","0","42","0","0","42","42","0","0","0","42","42","0","42","Tue May  1 09:34:31 2018","#000000","high","2","The main experiment item","yes","","exp2.osexp","/Users/tom/github/sft-fraction/exp2","mono","mono","no","mono","no","24","no","white","no","yes","800","legacy","42","42","0","/Users/tom/github/sft-fraction/exp2/data/subject-1b.csv","legacy","#000000","high","4","Jazzy James","3.1.9","0","a","NA","space","space","space","a","NA","502","NA","22192","8391","3484","502","NA","2","legacy","1024","2","48000","-16","experiment","1","odd","absent","35524","35524","NA","71728","1378","35507","87103","87623","1401","23610","32022","87623","88127","NA","87088","Fraction component detection task","41","24310","43","yes","1280"
"93.1818181818","93.1818181818","563.590909091","563.590909091","#808080","no","legacy","legacy","legacy","0","uniform","0","undefined","undefined","undefined","0","l","0","0","0","43","0","0","43","43","0","0","0","43","43","0","43","Tue May  1 09:34:31 2018","#757575","low","8","The main experiment item","yes","","exp2.osexp","/Users/tom/github/sft-fraction/exp2","Zapfino","Zapfino","no","mono","no","24","no","white","no","yes","800","legacy","43","43","0","/Users/tom/github/sft-fraction/exp2/data/subject-1b.csv","legacy","#757575","low","6","Jazzy James","3.1.9","0","a","NA","space","space","space","a","NA","488","NA","22192","8391","3484","488","NA","2","legacy","1024","2","48000","-16","experiment","1","odd","present","35524","35524","NA","71728","1378","35507","88208","88725","1401","23610","32022","88725","89215","NA","88193","Fraction component detection task","41","24798","44","yes","1280"
"93.3333333333","93.3333333333","568.533333333","568.533333333","#808080","no","legacy","legacy","legacy","0","uniform","1","undefined","undefined","undefined","1","l","0","0","0","44","0","0","44","44","0","0","0","44","44","0","44","Tue May  1 09:34:31 2018","#000000","high","7","The main experiment item","yes","","exp2.osexp","/Users/tom/github/sft-fraction/exp2","mono","mono","no","mono","no","24","no","white","no","yes","800","legacy","44","44","0","/Users/tom/github/sft-fraction/exp2/data/subject-1b.csv","legacy","#000000","high","2","Jazzy James","3.1.9","0","l","NA","space","space","space","l","NA","786","NA","22192","8391","3484","786","NA","2","legacy","1024","2","48000","-16","experiment","1","odd","present","35524","35524","NA","89238","1378","35507","90327","90843","1401","23610","32022","90843","91631","NA","90308","Fraction component detection task","42","25584","45","yes","1280"
"93.4782608696","93.4782608696","574.695652174","574.695652174","#808080","no","legacy","legacy","legacy","0","uniform","1","undefined","undefined","undefined","1","a","0","0","0","45","0","0","45","45","0","0","0","45","45","0","45","Tue May  1 09:34:31 2018","#757575","low","2","The main experiment item","yes","","exp2.osexp","/Users/tom/github/sft-fraction/exp2","Zapfino","mono","no","mono","no","24","no","white","no","yes","800","legacy","45","45","0","/Users/tom/github/sft-fraction/exp2/data/subject-1b.csv","legacy","#000000","high","2","Jazzy James","3.1.9","0","a","NA","space","space","space","a","NA","852","NA","22192","8391","3484","852","NA","2","legacy","1024","2","48000","-16","experiment","1","odd","absent","35524","35524","NA","89238","1378","35507","91720","92240","1401","23610","32022","92241","93095","NA","91699","Fraction component detection task","43","26436","46","yes","1280"
"91.4893617021","91.4893617021","577.14893617","577.14893617","#808080","no","legacy","legacy","legacy","0","uniform","0","undefined","undefined","undefined","0","a","0","0","0","46","0","0","46","46","0","0","0","46","46","0","46","Tue May  1 09:34:31 2018","#757575","low","4","The main experiment item","yes","","exp2.osexp","/Users/tom/github/sft-fraction/exp2","Zapfino","Zapfino","no","mono","no","24","no","white","no","yes","800","legacy","46","46","0","/Users/tom/github/sft-fraction/exp2/data/subject-1b.csv","legacy","#757575","low","4","Jazzy James","3.1.9","0","l","NA","space","space","space","l","NA","690","NA","22192","8391","3484","690","NA","2","legacy","1024","2","48000","-16","experiment","1","odd","absent","35524","35524","NA","89238","1378","35507","93182","93698","1401","23610","32022","93699","94392","NA","93163","Fraction component detection task","43","27126","47","yes","1280"
"91.6666666667","91.6666666667","585.083333333","585.083333333","#808080","no","legacy","legacy","legacy","0","uniform","1","undefined","undefined","undefined","1","l","0","0","0","47","0","0","47","47","0","0","0","47","47","0","47","Tue May  1 09:34:31 2018","#000000","high","3","The main experiment item","yes","","exp2.osexp","/Users/tom/github/sft-fraction/exp2","mono","mono","no","mono","no","24","no","white","no","yes","800","legacy","47","47","0","/Users/tom/github/sft-fraction/exp2/data/subject-1b.csv","legacy","#000000","high","8","Jazzy James","3.1.9","0","l","NA","space","space","space","l","NA","958","NA","22192","8391","3484","958","NA","2","legacy","1024","2","48000","-16","experiment","1","odd","present","35524","35524","NA","94413","1378","35507","95498","96014","1401","23610","32022","96015","96976","NA","95481","Fraction component detection task","44","28084","48","yes","1280"
"91.8367346939","91.8367346939","584.693877551","584.693877551","#808080","no","legacy","legacy","legacy","0","uniform","1","undefined","undefined","undefined","1","a","0","0","0","48","0","0","48","48","0","0","0","48","48","0","48","Tue May  1 09:34:31 2018","#000000","high","2","The main experiment item","yes","","exp2.osexp","/Users/tom/github/sft-fraction/exp2","mono","Zapfino","no","mono","no","24","no","white","no","yes","800","legacy","48","48","0","/Users/tom/github/sft-fraction/exp2/data/subject-1b.csv","legacy","#757575","low","3","Jazzy James","3.1.9","0","a","NA","space","space","space","a","NA","566","NA","22192","8391","3484","566","NA","2","legacy","1024","2","48000","-16","experiment","1","odd","absent","35524","35524","NA","94413","1378","35507","97059","97575","1401","23610","32022","97575","98144","NA","97041","Fraction component detection task","45","28650","49","yes","1280"
"92","92","586.58","586.58","#808080","no","legacy","legacy","legacy","0","uniform","1","undefined","undefined","undefined","1","a","0","0","0","49","0","0","49","49","0","0","0","49","49","0","49","Tue May  1 09:34:31 2018","#000000","high","2","The main experiment item","yes","","exp2.osexp","/Users/tom/github/sft-fraction/exp2","mono","Zapfino","no","mono","no","24","no","white","no","yes","800","legacy","49","49","0","/Users/tom/github/sft-fraction/exp2/data/subject-1b.csv","legacy","#757575","low","4","Jazzy James","3.1.9","0","a","NA","space","space","space","a","NA","679","NA","22192","8391","3484","679","NA","2","legacy","1024","2","48000","-16","experiment","1","odd","absent","35524","35524","NA","94413","1378","35507","98218","98734","1401","23610","32022","98734","99416","NA","98201","Fraction component detection task","46","29329","50","yes","1280"
"92.1568627451","92.1568627451","587.843137255","587.843137255","#808080","no","legacy","legacy","legacy","0","uniform","1","undefined","undefined","undefined","1","l","0","0","0","50","0","0","50","50","0","0","0","50","50","0","50","Tue May  1 09:34:31 2018","#757575","low","8","The main experiment item","yes","","exp2.osexp","/Users/tom/github/sft-fraction/exp2","Zapfino","mono","no","mono","no","24","no","white","no","yes","800","legacy","50","50","0","/Users/tom/github/sft-fraction/exp2/data/subject-1b.csv","legacy","#000000","high","4","Jazzy James","3.1.9","0","l","NA","space","space","space","l","NA","651","NA","22192","8391","3484","651","NA","2","legacy","1024","2","48000","-16","experiment","1","odd","present","35524","35524","NA","94413","1378","35507","99499","100019","1401","23610","32022","100019","100672","NA","99484","Fraction component detection task","47","29980","51","yes","1280"
"92.3076923077","92.3076923077","585.961538462","585.961538462","#808080","no","legacy","legacy","legacy","0","uniform","1","undefined","undefined","undefined","1","l","0","0","0","51","0","0","51","51","0","0","0","51","51","0","51","Tue May  1 09:34:31 2018","#000000","high","8","The main experiment item","yes","","exp2.osexp","/Users/tom/github/sft-fraction/exp2","mono","Zapfino","no","mono","no","24","no","white","no","yes","800","legacy","51","51","0","/Users/tom/github/sft-fraction/exp2/data/subject-1b.csv","legacy","#757575","low","8","Jazzy James","3.1.9","0","l","NA","space","space","space","l","NA","490","NA","22192","8391","3484","490","NA","2","legacy","1024","2","48000","-16","experiment","1","odd","present","35524","35524","NA","94413","1378","35507","100756","101276","1401","23610","32022","101276","101768","NA","100739","Fraction component detection task","48","30470","52","yes","1280"
"92.4528301887","92.4528301887","584.905660377","584.905660377","#808080","no","legacy","legacy","legacy","0","uniform","1","undefined","undefined","undefined","1","l","0","0","0","52","0","0","52","52","0","0","0","52","52","0","52","Tue May  1 09:34:31 2018","#000000","high","6","The main experiment item","yes","","exp2.osexp","/Users/tom/github/sft-fraction/exp2","mono","Zapfino","no","mono","no","24","no","white","no","yes","800","legacy","52","52","0","/Users/tom/github/sft-fraction/exp2/data/subject-1b.csv","legacy","#757575","low","6","Jazzy James","3.1.9","0","l","NA","space","space","space","l","NA","530","NA","22192","8391","3484","530","NA","2","legacy","1024","2","48000","-16","experiment","1","odd","present","35524","35524","NA","94413","1378","35507","101852","102371","1401","23610","32022","102372","102904","NA","101838","Fraction component detection task","49","31000","53","yes","1280"
"92.5925925926","92.5925925926","582.277777778","582.277777778","#808080","no","legacy","legacy","legacy","0","uniform","1","undefined","undefined","undefined","1","l","0","0","0","53","0","0","53","53","0","0","0","53","53","0","53","Tue May  1 09:34:31 2018","#000000","high","2","The main experiment item","yes","","exp2.osexp","/Users/tom/github/sft-fraction/exp2","mono","mono","no","mono","no","24","no","white","no","yes","800","legacy","53","53","0","/Users/tom/github/sft-fraction/exp2/data/subject-1b.csv","legacy","#000000","high","6","Jazzy James","3.1.9","0","l","NA","space","space","space","l","NA","443","NA","22192","8391","3484","443","NA","2","legacy","1024","2","48000","-16","experiment","1","odd","present","35524","35524","NA","94413","1378","35507","102990","103507","1401","23610","32022","103507","103952","NA","102972","Fraction component detection task","50","31443","54","yes","1280"
"92.7272727273","92.7272727273","580.090909091","580.090909091","#808080","no","legacy","legacy","legacy","0","uniform","1","undefined","undefined","undefined","1","l","0","0","0","54","0","0","54","54","0","0","0","54","54","0","54","Tue May  1 09:34:31 2018","#757575","low","3","The main experiment item","yes","","exp2.osexp","/Users/tom/github/sft-fraction/exp2","Zapfino","Zapfino","no","mono","no","24","no","white","no","yes","800","legacy","54","54","0","/Users/tom/github/sft-fraction/exp2/data/subject-1b.csv","legacy","#757575","low","8","Jazzy James","3.1.9","0","l","NA","space","space","space","l","NA","462","NA","22192","8391","3484","462","NA","2","legacy","1024","2","48000","-16","experiment","1","odd","present","35524","35524","NA","94413","1378","35507","104035","104551","1401","23610","32022","104551","105016","NA","104017","Fraction component detection task","51","31905","55","yes","1280"
"92.8571428571","92.8571428571","578.035714286","578.035714286","#808080","no","legacy","legacy","legacy","0","uniform","1","undefined","undefined","undefined","1","l","0","0","0","55","0","0","55","55","0","0","0","55","55","0","55","Tue May  1 09:34:31 2018","#000000","high","8","The main experiment item","yes","","exp2.osexp","/Users/tom/github/sft-fraction/exp2","mono","Zapfino","no","mono","no","24","no","white","no","yes","800","legacy","55","55","0","/Users/tom/github/sft-fraction/exp2/data/subject-1b.csv","legacy","#757575","low","7","Jazzy James","3.1.9","0","l","NA","space","space","space","l","NA","465","NA","22192","8391","3484","465","NA","2","legacy","1024","2","48000","-16","experiment","1","odd","present","35524","35524","NA","94413","1378","35507","105098","105620","1401","23610","32022","105621","106088","NA","105083","Fraction component detection task","52","32370","56","yes","1280"
"92.9824561404","92.9824561404","576.526315789","576.526315789","#808080","no","legacy","legacy","legacy","0","uniform","1","undefined","undefined","undefined","1","l","0","0","0","56","0","0","56","56","0","0","0","56","56","0","56","Tue May  1 09:34:31 2018","#000000","high","7","The main experiment item","yes","","exp2.osexp","/Users/tom/github/sft-fraction/exp2","mono","mono","no","mono","no","24","no","white","no","yes","800","legacy","56","56","0","/Users/tom/github/sft-fraction/exp2/data/subject-1b.csv","legacy","#000000","high","7","Jazzy James","3.1.9","0","l","NA","space","space","space","l","NA","492","NA","22192","8391","3484","492","NA","2","legacy","1024","2","48000","-16","experiment","1","odd","present","35524","35524","NA","94413","1378","35507","106174","106690","1401","23610","32022","106690","107184","NA","106153","Fraction component detection task","53","32862","57","yes","1280"
"93.1034482759","93.1034482759","575.155172414","575.155172414","#808080","no","legacy","legacy","legacy","0","uniform","1","undefined","undefined","undefined","1","a","0","0","0","57","0","0","57","57","0","0","0","57","57","0","57","Tue May  1 09:34:31 2018","#757575","low","3","The main experiment item","yes","","exp2.osexp","/Users/tom/github/sft-fraction/exp2","Zapfino","mono","no","mono","no","24","no","white","no","yes","800","legacy","57","57","0","/Users/tom/github/sft-fraction/exp2/data/subject-1b.csv","legacy","#000000","high","4","Jazzy James","3.1.9","0","a","NA","space","space","space","a","NA","497","NA","22192","8391","3484","497","NA","2","legacy","1024","2","48000","-16","experiment","1","odd","absent","35524","35524","NA","94413","1378","35507","107264","107781","1401","23610","32022","107781","108280","NA","107249","Fraction component detection task","54","33359","58","yes","1280"
"93.2203389831","93.2203389831","578.220338983","578.220338983","#808080","no","legacy","legacy","legacy","0","uniform","1","undefined","undefined","undefined","1","l","0","0","0","58","0","0","58","58","0","0","0","58","58","0","58","Tue May  1 09:34:31 2018","#757575","low","6","The main experiment item","yes","","exp2.osexp","/Users/tom/github/sft-fraction/exp2","Zapfino","mono","no","mono","no","24","no","white","no","yes","800","legacy","58","58","0","/Users/tom/github/sft-fraction/exp2/data/subject-1b.csv","legacy","#000000","high","8","Jazzy James","3.1.9","0","l","NA","space","space","space","l","NA","756","NA","22192","8391","3484","756","NA","2","legacy","1024","2","48000","-16","experiment","1","odd","present","35524","35524","NA","94413","1378","35507","108364","108882","1401","23610","32022","108882","109640","NA","108344","Fraction component detection task","55","34115","59","yes","1280"
"93.3333333333","93.3333333333","578.6","578.6","#808080","no","legacy","legacy","legacy","0","uniform","1","undefined","undefined","undefined","1","a","0","0","0","59","0","0","59","59","0","0","0","59","59","0","59","Tue May  1 09:34:31 2018","#000000","high","4","The main experiment item","yes","","exp2.osexp","/Users/tom/github/sft-fraction/exp2","mono","Zapfino","no","mono","no","24","no","white","no","yes","800","legacy","59","59","0","/Users/tom/github/sft-fraction/exp2/data/subject-1b.csv","legacy","#757575","low","2","Jazzy James","3.1.9","0","a","NA","space","space","space","a","NA","601","NA","22192","8391","3484","601","NA","2","legacy","1024","2","48000","-16","experiment","1","odd","absent","35524","35524","NA","94413","1378","35507","109728","110245","1401","23610","32022","110245","110848","NA","109708","Fraction component detection task","56","34716","60","yes","1280"
"93.4426229508","93.4426229508","577.131147541","577.131147541","#808080","no","legacy","legacy","legacy","0","uniform","1","undefined","undefined","undefined","1","a","0","0","0","60","0","0","60","60","0","0","0","60","60","0","60","Tue May  1 09:34:31 2018","#757575","low","3","The main experiment item","yes","","exp2.osexp","/Users/tom/github/sft-fraction/exp2","Zapfino","Zapfino","no","mono","no","24","no","white","no","yes","800","legacy","60","60","0","/Users/tom/github/sft-fraction/exp2/data/subject-1b.csv","legacy","#757575","low","3","Jazzy James","3.1.9","0","a","NA","space","space","space","a","NA","489","NA","22192","8391","3484","489","NA","2","legacy","1024","2","48000","-16","experiment","1","odd","absent","35524","35524","NA","94413","1378","35507","110937","111453","1401","23610","32022","111453","111945","NA","110922","Fraction component detection task","57","35205","61","yes","1280"
"93.5483870968","93.5483870968","579.209677419","579.209677419","#808080","no","legacy","legacy","legacy","0","uniform","1","undefined","undefined","undefined","1","l","0","0","0","61","0","0","61","61","0","0","0","61","61","0","61","Tue May  1 09:34:31 2018","#000000","high","6","The main experiment item","yes","","exp2.osexp","/Users/tom/github/sft-fraction/exp2","mono","mono","no","mono","no","24","no","white","no","yes","800","legacy","61","61","0","/Users/tom/github/sft-fraction/exp2/data/subject-1b.csv","legacy","#000000","high","2","Jazzy James","3.1.9","0","l","NA","space","space","space","l","NA","706","NA","22192","8391","3484","706","NA","2","legacy","1024","2","48000","-16","experiment","1","odd","present","35524","35524","NA","94413","1378","35507","112029","112548","1401","23610","32022","112548","113257","NA","112007","Fraction component detection task","58","35911","62","yes","1280"
"93.6507936508","93.6507936508","580.333333333","580.333333333","#808080","no","legacy","legacy","legacy","0","uniform","1","undefined","undefined","undefined","1","a","0","0","0","62","0","0","62","62","0","0","0","62","62","0","62","Tue May  1 09:34:31 2018","#000000","high","2","The main experiment item","yes","","exp2.osexp","/Users/tom/github/sft-fraction/exp2","mono","mono","no","mono","no","24","no","white","no","yes","800","legacy","62","62","0","/Users/tom/github/sft-fraction/exp2/data/subject-1b.csv","legacy","#000000","high","2","Jazzy James","3.1.9","0","a","NA","space","space","space","a","NA","650","NA","22192","8391","3484","650","NA","2","legacy","1024","2","48000","-16","experiment","1","odd","absent","35524","35524","NA","94413","1378","35507","113336","113852","1401","23610","32022","113852","114505","NA","113321","Fraction component detection task","59","36561","63","yes","1280"
"93.75","93.75","579.546875","579.546875","#808080","no","legacy","legacy","legacy","0","uniform","1","undefined","undefined","undefined","1","a","0","0","0","63","0","0","63","63","0","0","0","63","63","0","63","Tue May  1 09:34:31 2018","#000000","high","3","The main experiment item","yes","","exp2.osexp","/Users/tom/github/sft-fraction/exp2","mono","Zapfino","no","mono","no","24","no","white","no","yes","800","legacy","63","63","0","/Users/tom/github/sft-fraction/exp2/data/subject-1b.csv","legacy","#757575","low","3","Jazzy James","3.1.9","0","a","NA","space","space","space","a","NA","530","NA","22192","8391","3484","530","NA","2","legacy","1024","2","48000","-16","experiment","1","odd","absent","35524","35524","NA","94413","1378","35507","114589","115107","1401","23610","32022","115108","115641","NA","114569","Fraction component detection task","60","37091","64","yes","1280"
"93.8461538462","93.8461538462","580.369230769","580.369230769","#808080","no","legacy","legacy","legacy","0","uniform","1","undefined","undefined","undefined","1","l","0","0","0","64","0","0","64","64","0","0","0","64","64","0","64","Tue May  1 09:34:31 2018","#757575","low","3","The main experiment item","yes","","exp2.osexp","/Users/tom/github/sft-fraction/exp2","Zapfino","mono","no","mono","no","24","no","white","no","yes","800","legacy","64","64","0","/Users/tom/github/sft-fraction/exp2/data/subject-1b.csv","legacy","#000000","high","7","Jazzy James","3.1.9","0","l","NA","space","space","space","l","NA","633","NA","22192","8391","3484","633","NA","2","legacy","1024","2","48000","-16","experiment","1","odd","present","35524","35524","NA","94413","1378","35507","115722","116238","1401","23610","32022","116238","116873","NA","115707","Fraction component detection task","61","37724","65","yes","1280"
"93.9393939394","93.9393939394","582.227272727","582.227272727","#808080","no","legacy","legacy","legacy","0","uniform","1","undefined","undefined","undefined","1","a","0","0","0","65","0","0","65","65","0","0","0","65","65","0","65","Tue May  1 09:34:31 2018","#000000","high","4","The main experiment item","yes","","exp2.osexp","/Users/tom/github/sft-fraction/exp2","mono","mono","no","mono","no","24","no","white","no","yes","800","legacy","65","65","0","/Users/tom/github/sft-fraction/exp2/data/subject-1b.csv","legacy","#000000","high","3","Jazzy James","3.1.9","0","a","NA","space","space","space","a","NA","703","NA","22192","8391","3484","703","NA","2","legacy","1024","2","48000","-16","experiment","1","odd","absent","35524","35524","NA","94413","1378","35507","116960","117479","1401","23610","32022","117479","118185","NA","116945","Fraction component detection task","62","38427","66","yes","1280"
"94.0298507463","94.0298507463","580.52238806","580.52238806","#808080","no","legacy","legacy","legacy","0","uniform","1","undefined","undefined","undefined","1","a","0","0","0","66","0","0","66","66","0","0","0","66","66","0","66","Tue May  1 09:34:31 2018","#000000","high","3","The main experiment item","yes","","exp2.osexp","/Users/tom/github/sft-fraction/exp2","mono","mono","no","mono","no","24","no","white","no","yes","800","legacy","66","66","0","/Users/tom/github/sft-fraction/exp2/data/subject-1b.csv","legacy","#000000","high","4","Jazzy James","3.1.9","0","a","NA","space","space","space","a","NA","468","NA","22192","8391","3484","468","NA","2","legacy","1024","2","48000","-16","experiment","1","odd","absent","35524","35524","NA","94413","1378","35507","118271","118787","1401","23610","32022","118787","119257","NA","118250","Fraction component detection task","63","38895","67","yes","1280"
"94.1176470588","94.1176470588","580.147058824","580.147058824","#808080","no","legacy","legacy","legacy","0","uniform","1","undefined","undefined","undefined","1","a","0","0","0","67","0","0","67","67","0","0","0","67","67","0","67","Tue May  1 09:34:31 2018","#757575","low","3","The main experiment item","yes","","exp2.osexp","/Users/tom/github/sft-fraction/exp2","Zapfino","mono","no","mono","no","24","no","white","no","yes","800","legacy","67","67","0","/Users/tom/github/sft-fraction/exp2/data/subject-1b.csv","legacy","#000000","high","2","Jazzy James","3.1.9","0","a","NA","space","space","space","a","NA","555","NA","22192","8391","3484","555","NA","2","legacy","1024","2","48000","-16","experiment","1","odd","absent","35524","35524","NA","94413","1378","35507","119341","119860","1401","23610","32022","119860","120417","NA","119321","Fraction component detection task","64","39450","68","yes","1280"
"94.2028985507","94.2028985507","579.31884058","579.31884058","#808080","no","legacy","legacy","legacy","0","uniform","1","undefined","undefined","undefined","1","l","0","0","0","68","0","0","68","68","0","0","0","68","68","0","68","Tue May  1 09:34:31 2018","#757575","low","3","The main experiment item","yes","","exp2.osexp","/Users/tom/github/sft-fraction/exp2","Zapfino","mono","no","mono","no","24","no","white","no","yes","800","legacy","68","68","0","/Users/tom/github/sft-fraction/exp2/data/subject-1b.csv","legacy","#000000","high","8","Jazzy James","3.1.9","0","l","NA","space","space","space","l","NA","523","NA","22192","8391","3484","523","NA","2","legacy","1024","2","48000","-16","experiment","1","odd","present","35524","35524","NA","94413","1378","35507","120503","121020","1401","23610","32022","121020","121545","NA","120486","Fraction component detection task","65","39973","69","yes","1280"
"94.2857142857","94.2857142857","578.871428571","578.871428571","#808080","no","legacy","legacy","legacy","0","uniform","1","undefined","undefined","undefined","1","a","0","0","0","69","0","0","69","69","0","0","0","69","69","0","69","Tue May  1 09:34:31 2018","#000000","high","2","The main experiment item","yes","","exp2.osexp","/Users/tom/github/sft-fraction/exp2","mono","mono","no","mono","no","24","no","white","no","yes","800","legacy","69","69","0","/Users/tom/github/sft-fraction/exp2/data/subject-1b.csv","legacy","#000000","high","4","Jazzy James","3.1.9","0","a","NA","space","space","space","a","NA","548","NA","22192","8391","3484","548","NA","2","legacy","1024","2","48000","-16","experiment","1","odd","absent","35524","35524","NA","94413","1378","35507","121626","122146","1401","23610","32022","122147","122699","NA","121611","Fraction component detection task","66","40521","70","yes","1280"
"94.3661971831","94.3661971831","578.014084507","578.014084507","#808080","no","legacy","legacy","legacy","0","uniform","1","undefined","undefined","undefined","1","a","0","0","0","70","0","0","70","70","0","0","0","70","70","0","70","Tue May  1 09:34:31 2018","#757575","low","2","The main experiment item","yes","","exp2.osexp","/Users/tom/github/sft-fraction/exp2","Zapfino","mono","no","mono","no","24","no","white","no","yes","800","legacy","70","70","0","/Users/tom/github/sft-fraction/exp2/data/subject-1b.csv","legacy","#000000","high","2","Jazzy James","3.1.9","0","a","NA","space","space","space","a","NA","518","NA","22192","8391","3484","518","NA","2","legacy","1024","2","48000","-16","experiment","1","odd","absent","35524","35524","NA","94413","1378","35507","122788","123305","1401","23610","32022","123305","123826","NA","122768","Fraction component detection task","67","41039","71","yes","1280"
"94.4444444444","94.4444444444","579.569444444","579.569444444","#808080","no","legacy","legacy","legacy","0","uniform","1","undefined","undefined","undefined","1","l","0","0","0","71","0","0","71","71","0","0","0","71","71","0","71","Tue May  1 09:34:31 2018","#000000","high","7","The main experiment item","yes","","exp2.osexp","/Users/tom/github/sft-fraction/exp2","mono","Zapfino","no","mono","no","24","no","white","no","yes","800","legacy","71","71","0","/Users/tom/github/sft-fraction/exp2/data/subject-1b.csv","legacy","#757575","low","8","Jazzy James","3.1.9","0","l","NA","space","space","space","l","NA","690","NA","22192","8391","3484","690","NA","2","legacy","1024","2","48000","-16","experiment","1","odd","present","35524","35524","NA","94413","1378","35507","123911","124429","1401","23610","32022","124429","125121","NA","123896","Fraction component detection task","68","41729","72","yes","1280"
"93.1506849315","93.1506849315","580.315068493","580.315068493","#808080","no","legacy","legacy","legacy","0","uniform","0","undefined","undefined","undefined","0","l","0","0","0","72","0","0","72","72","0","0","0","72","72","0","72","Tue May  1 09:34:31 2018","#757575","low","3","The main experiment item","yes","","exp2.osexp","/Users/tom/github/sft-fraction/exp2","Zapfino","Zapfino","no","mono","no","24","no","white","no","yes","800","legacy","72","72","0","/Users/tom/github/sft-fraction/exp2/data/subject-1b.csv","legacy","#757575","low","6","Jazzy James","3.1.9","0","a","NA","space","space","space","a","NA","634","NA","22192","8391","3484","634","NA","2","legacy","1024","2","48000","-16","experiment","1","odd","present","35524","35524","NA","94413","1378","35507","125206","125725","1401","23610","32022","125725","126361","NA","125187","Fraction component detection task","68","42363","73","yes","1280"
"93.2432432432","93.2432432432","584.783783784","584.783783784","#808080","no","legacy","legacy","legacy","0","uniform","1","undefined","undefined","undefined","1","l","0","0","0","73","0","0","73","73","0","0","0","73","73","0","73","Tue May  1 09:34:31 2018","#757575","low","6","The main experiment item","yes","","exp2.osexp","/Users/tom/github/sft-fraction/exp2","Zapfino","mono","no","mono","no","24","no","white","no","yes","800","legacy","73","73","0","/Users/tom/github/sft-fraction/exp2/data/subject-1b.csv","legacy","#000000","high","4","Jazzy James","3.1.9","0","l","NA","space","space","space","l","NA","911","NA","22192","8391","3484","911","NA","2","legacy","1024","2","48000","-16","experiment","1","odd","present","35524","35524","NA","126384","1378","35507","127459","127976","1401","23610","32022","127976","128890","NA","127444","Fraction component detection task","69","43274","74","yes","1280"
"93.3333333333","93.3333333333","586.586666667","586.586666667","#808080","no","legacy","legacy","legacy","0","uniform","1","undefined","undefined","undefined","1","l","0","0","0","74","0","0","74","74","0","0","0","74","74","0","74","Tue May  1 09:34:31 2018","#000000","high","3","The main experiment item","yes","","exp2.osexp","/Users/tom/github/sft-fraction/exp2","mono","Zapfino","no","mono","no","24","no","white","no","yes","800","legacy","74","74","0","/Users/tom/github/sft-fraction/exp2/data/subject-1b.csv","legacy","#757575","low","7","Jazzy James","3.1.9","0","l","NA","space","space","space","l","NA","720","NA","22192","8391","3484","720","NA","2","legacy","1024","2","48000","-16","experiment","1","odd","present","35524","35524","NA","126384","1378","35507","128968","129486","1401","23610","32022","129487","130210","NA","128953","Fraction component detection task","70","43994","75","yes","1280"
"93.4210526316","93.4210526316","587.407894737","587.407894737","#808080","no","legacy","legacy","legacy","0","uniform","1","undefined","undefined","undefined","1","a","0","0","0","75","0","0","75","75","0","0","0","75","75","0","75","Tue May  1 09:34:31 2018","#000000","high","4","The main experiment item","yes","","exp2.osexp","/Users/tom/github/sft-fraction/exp2","mono","Zapfino","no","mono","no","24","no","white","no","yes","800","legacy","75","75","0","/Users/tom/github/sft-fraction/exp2/data/subject-1b.csv","legacy","#757575","low","3","Jazzy James","3.1.9","0","a","NA","space","space","space","a","NA","649","NA","22192","8391","3484","649","NA","2","legacy","1024","2","48000","-16","experiment","1","odd","absent","35524","35524","NA","126384","1378","35507","130289","130806","1401","23610","32022","130806","131458","NA","130273","Fraction component detection task","71","44643","76","yes","1280"
"93.5064935065","93.5064935065","585.454545455","585.454545455","#808080","no","legacy","legacy","legacy","0","uniform","1","undefined","undefined","undefined","1","l","0","0","0","76","0","0","76","76","0","0","0","76","76","0","76","Tue May  1 09:34:31 2018","#000000","high","7","The main experiment item","yes","","exp2.osexp","/Users/tom/github/sft-fraction/exp2","mono","mono","no","mono","no","24","no","white","no","yes","800","legacy","76","76","0","/Users/tom/github/sft-fraction/exp2/data/subject-1b.csv","legacy","#000000","high","8","Jazzy James","3.1.9","0","l","NA","space","space","space","l","NA","437","NA","22192","8391","3484","437","NA","2","legacy","1024","2","48000","-16","experiment","1","odd","present","35524","35524","NA","126384","1378","35507","131543","132059","1401","23610","32022","132059","132498","NA","131527","Fraction component detection task","72","45080","77","yes","1280"
"92.3076923077","92.3076923077","584.576923077","584.576923077","#808080","no","legacy","legacy","legacy","0","uniform","0","undefined","undefined","undefined","0","a","0","0","0","77","0","0","77","77","0","0","0","77","77","0","77","Tue May  1 09:34:31 2018","#000000","high","4","The main experiment item","yes","","exp2.osexp","/Users/tom/github/sft-fraction/exp2","mono","Zapfino","no","mono","no","24","no","white","no","yes","800","legacy","77","77","0","/Users/tom/github/sft-fraction/exp2/data/subject-1b.csv","legacy","#757575","low","4","Jazzy James","3.1.9","0","l","NA","space","space","space","l","NA","517","NA","22192","8391","3484","517","NA","2","legacy","1024","2","48000","-16","experiment","1","odd","absent","35524","35524","NA","126384","1378","35507","132582","133098","1401","23610","32022","133098","133618","NA","132567","Fraction component detection task","72","45597","78","yes","1280"
"92.4050632911","92.4050632911","584.481012658","584.481012658","#808080","no","legacy","legacy","legacy","0","uniform","1","undefined","undefined","undefined","1","a","0","0","0","78","0","0","78","78","0","0","0","78","78","0","78","Tue May  1 09:34:31 2018","#757575","low","4","The main experiment item","yes","","exp2.osexp","/Users/tom/github/sft-fraction/exp2","Zapfino","Zapfino","no","mono","no","24","no","white","no","yes","800","legacy","78","78","0","/Users/tom/github/sft-fraction/exp2/data/subject-1b.csv","legacy","#757575","low","2","Jazzy James","3.1.9","0","a","NA","space","space","space","a","NA","577","NA","22192","8391","3484","577","NA","2","legacy","1024","2","48000","-16","experiment","1","odd","absent","35524","35524","NA","133636","1378","35507","134713","135231","1401","23610","32022","135231","135810","NA","134697","Fraction component detection task","73","46174","79","yes","1280"
"92.5","92.5","585.725","585.725","#808080","no","legacy","legacy","legacy","0","uniform","1","undefined","undefined","undefined","1","l","0","0","0","79","0","0","79","79","0","0","0","79","79","0","79","Tue May  1 09:34:31 2018","#757575","low","8","The main experiment item","yes","","exp2.osexp","/Users/tom/github/sft-fraction/exp2","Zapfino","Zapfino","no","mono","no","24","no","white","no","yes","800","legacy","79","79","0","/Users/tom/github/sft-fraction/exp2/data/subject-1b.csv","legacy","#757575","low","2","Jazzy James","3.1.9","0","l","NA","space","space","space","l","NA","684","NA","22192","8391","3484","684","NA","2","legacy","1024","2","48000","-16","experiment","1","odd","present","35524","35524","NA","133636","1378","35507","135896","136412","1401","23610","32022","136412","137099","NA","135880","Fraction component detection task","74","46858","80","yes","1280"
"92.5925925926","92.5925925926","585.432098765","585.432098765","#808080","no","legacy","legacy","legacy","0","uniform","1","undefined","undefined","undefined","1","a","0","0","0","80","0","0","80","80","0","0","0","80","80","0","80","Tue May  1 09:34:31 2018","#000000","high","3","The main experiment item","yes","","exp2.osexp","/Users/tom/github/sft-fraction/exp2","mono","Zapfino","no","mono","no","24","no","white","no","yes","800","legacy","80","80","0","/Users/tom/github/sft-fraction/exp2/data/subject-1b.csv","legacy","#757575","low","4","Jazzy James","3.1.9","0","a","NA","space","space","space","a","NA","562","NA","22192","8391","3484","562","NA","2","legacy","1024","2","48000","-16","experiment","1","odd","absent","35524","35524","NA","133636","1378","35507","137185","137702","1401","23610","32022","137702","138266","NA","137170","Fraction component detection task","75","47420","81","yes","1280"
"92.6829268293","92.6829268293","585.243902439","585.243902439","#808080","no","legacy","legacy","legacy","0","uniform","1","undefined","undefined","undefined","1","a","0","0","0","81","0","0","81","81","0","0","0","81","81","0","81","Tue May  1 09:34:31 2018","#757575","low","4","The main experiment item","yes","","exp2.osexp","/Users/tom/github/sft-fraction/exp2","Zapfino","mono","no","mono","no","24","no","white","no","yes","800","legacy","81","81","0","/Users/tom/github/sft-fraction/exp2/data/subject-1b.csv","legacy","#000000","high","3","Jazzy James","3.1.9","0","a","NA","space","space","space","a","NA","570","NA","22192","8391","3484","570","NA","2","legacy","1024","2","48000","-16","experiment","1","odd","absent","35524","35524","NA","133636","1378","35507","138350","138870","1401","23610","32022","138870","139442","NA","138332","Fraction component detection task","76","47990","82","yes","1280"
"92.7710843373","92.7710843373","585.686746988","585.686746988","#808080","no","legacy","legacy","legacy","0","uniform","1","undefined","undefined","undefined","1","a","0","0","0","82","0","0","82","82","0","0","0","82","82","0","82","Tue May  1 09:34:31 2018","#757575","low","3","The main experiment item","yes","","exp2.osexp","/Users/tom/github/sft-fraction/exp2","Zapfino","mono","no","mono","no","24","no","white","no","yes","800","legacy","82","82","0","/Users/tom/github/sft-fraction/exp2/data/subject-1b.csv","legacy","#000000","high","4","Jazzy James","3.1.9","0","a","NA","space","space","space","a","NA","622","NA","22192","8391","3484","622","NA","2","legacy","1024","2","48000","-16","experiment","1","odd","absent","35524","35524","NA","133636","1378","35507","139530","140050","1401","23610","32022","140050","140675","NA","139510","Fraction component detection task","77","48612","83","yes","1280"
"91.6666666667","91.6666666667","584.821428571","584.821428571","#808080","no","legacy","legacy","legacy","0","uniform","0","undefined","undefined","undefined","0","l","0","0","0","83","0","0","83","83","0","0","0","83","83","0","83","Tue May  1 09:34:31 2018","#757575","low","6","The main experiment item","yes","","exp2.osexp","/Users/tom/github/sft-fraction/exp2","Zapfino","Zapfino","no","mono","no","24","no","white","no","yes","800","legacy","83","83","0","/Users/tom/github/sft-fraction/exp2/data/subject-1b.csv","legacy","#757575","low","2","Jazzy James","3.1.9","0","a","NA","space","space","space","a","NA","513","NA","22192","8391","3484","513","NA","2","legacy","1024","2","48000","-16","experiment","1","odd","present","35524","35524","NA","133636","1378","35507","140755","141270","1401","23610","32022","141271","141787","NA","140740","Fraction component detection task","77","49125","84","yes","1280"
"91.7647058824","91.7647058824","585.505882353","585.505882353","#808080","no","legacy","legacy","legacy","0","uniform","1","undefined","undefined","undefined","1","l","0","0","0","84","0","0","84","84","0","0","0","84","84","0","84","Tue May  1 09:34:31 2018","#000000","high","2","The main experiment item","yes","","exp2.osexp","/Users/tom/github/sft-fraction/exp2","mono","Zapfino","no","mono","no","24","no","white","no","yes","800","legacy","84","84","0","/Users/tom/github/sft-fraction/exp2/data/subject-1b.csv","legacy","#757575","low","6","Jazzy James","3.1.9","0","l","NA","space","space","space","l","NA","643","NA","22192","8391","3484","643","NA","2","legacy","1024","2","48000","-16","experiment","1","odd","present","35524","35524","NA","141808","1378","35507","142886","143405","1401","23610","32022","143405","144051","NA","142871","Fraction component detection task","78","49768","85","yes","1280"
"91.8604651163","91.8604651163","587.558139535","587.558139535","#808080","no","legacy","legacy","legacy","0","uniform","1","undefined","undefined","undefined","1","l","0","0","0","85","0","0","85","85","0","0","0","85","85","0","85","Tue May  1 09:34:31 2018","#757575","low","7","The main experiment item","yes","","exp2.osexp","/Users/tom/github/sft-fraction/exp2","Zapfino","mono","no","mono","no","24","no","white","no","yes","800","legacy","85","85","0","/Users/tom/github/sft-fraction/exp2/data/subject-1b.csv","legacy","#000000","high","4","Jazzy James","3.1.9","0","l","NA","space","space","space","l","NA","762","NA","22192","8391","3484","762","NA","2","legacy","1024","2","48000","-16","experiment","1","odd","present","35524","35524","NA","141808","1378","35507","144136","144654","1401","23610","32022","144654","145419","NA","144120","Fraction component detection task","79","50530","86","yes","1280"
"91.9540229885","91.9540229885","587.425287356","587.425287356","#808080","no","legacy","legacy","legacy","0","uniform","1","undefined","undefined","undefined","1","l","0","0","0","86","0","0","86","86","0","0","0","86","86","0","86","Tue May  1 09:34:31 2018","#000000","high","8","The main experiment item","yes","","exp2.osexp","/Users/tom/github/sft-fraction/exp2","mono","mono","no","mono","no","24","no","white","no","yes","800","legacy","86","86","0","/Users/tom/github/sft-fraction/exp2/data/subject-1b.csv","legacy","#000000","high","4","Jazzy James","3.1.9","0","l","NA","space","space","space","l","NA","576","NA","22192","8391","3484","576","NA","2","legacy","1024","2","48000","-16","experiment","1","odd","present","35524","35524","NA","141808","1378","35507","145506","146024","1401","23610","32022","146024","146603","NA","145488","Fraction component detection task","80","51106","87","yes","1280"
"92.0454545455","92.0454545455","588.272727273","588.272727273","#808080","no","legacy","legacy","legacy","0","uniform","1","undefined","undefined","undefined","1","l","0","0","0","87","0","0","87","87","0","0","0","87","87","0","87","Tue May  1 09:34:31 2018","#000000","high","6","The main experiment item","yes","","exp2.osexp","/Users/tom/github/sft-fraction/exp2","mono","Zapfino","no","mono","no","24","no","white","no","yes","800","legacy","87","87","0","/Users/tom/github/sft-fraction/exp2/data/subject-1b.csv","legacy","#757575","low","2","Jazzy James","3.1.9","0","l","NA","space","space","space","l","NA","662","NA","22192","8391","3484","662","NA","2","legacy","1024","2","48000","-16","experiment","1","odd","present","35524","35524","NA","141808","1378","35507","146681","147201","1401","23610","32022","147202","147867","NA","146666","Fraction component detection task","81","51768","88","yes","1280"
"92.1348314607","92.1348314607","587.359550562","587.359550562","#808080","no","legacy","legacy","legacy","0","uniform","1","undefined","undefined","undefined","1","l","0","0","0","88","0","0","88","88","0","0","0","88","88","0","88","Tue May  1 09:34:31 2018","#000000","high","8","The main experiment item","yes","","exp2.osexp","/Users/tom/github/sft-fraction/exp2","mono","mono","no","mono","no","24","no","white","no","yes","800","legacy","88","88","0","/Users/tom/github/sft-fraction/exp2/data/subject-1b.csv","legacy","#000000","high","3","Jazzy James","3.1.9","0","l","NA","space","space","space","l","NA","507","NA","22192","8391","3484","507","NA","2","legacy","1024","2","48000","-16","experiment","1","odd","present","35524","35524","NA","141808","1378","35507","147951","148469","1401","23610","32022","148469","148979","NA","147931","Fraction component detection task","82","52275","89","yes","1280"
"92.2222222222","92.2222222222","588.6","588.6","#808080","no","legacy","legacy","legacy","0","uniform","1","undefined","undefined","undefined","1","a","0","0","0","89","0","0","89","89","0","0","0","89","89","0","89","Tue May  1 09:34:31 2018","#757575","low","4","The main experiment item","yes","","exp2.osexp","/Users/tom/github/sft-fraction/exp2","Zapfino","mono","no","mono","no","24","no","white","no","yes","800","legacy","89","89","0","/Users/tom/github/sft-fraction/exp2/data/subject-1b.csv","legacy","#000000","high","2","Jazzy James","3.1.9","0","a","NA","space","space","space","a","NA","699","NA","22192","8391","3484","699","NA","2","legacy","1024","2","48000","-16","experiment","1","odd","absent","35524","35524","NA","141808","1378","35507","149064","149581","1401","23610","32022","149581","150284","NA","149049","Fraction component detection task","83","52974","90","yes","1280"
"92.3076923077","92.3076923077","589.021978022","589.021978022","#808080","no","legacy","legacy","legacy","0","uniform","1","undefined","undefined","undefined","1","l","0","0","0","90","0","0","90","90","0","0","0","90","90","0","90","Tue May  1 09:34:31 2018","#757575","low","7","The main experiment item","yes","","exp2.osexp","/Users/tom/github/sft-fraction/exp2","Zapfino","Zapfino","no","mono","no","24","no","white","no","yes","800","legacy","90","90","0","/Users/tom/github/sft-fraction/exp2/data/subject-1b.csv","legacy","#757575","low","8","Jazzy James","3.1.9","0","l","NA","space","space","space","l","NA","627","NA","22192","8391","3484","627","NA","2","legacy","1024","2","48000","-16","experiment","1","odd","present","35524","35524","NA","141808","1378","35507","150366","150886","1401","23610","32022","150886","151515","NA","150351","Fraction component detection task","84","53601","91","yes","1280"
"92.3913043478","92.3913043478","588.967391304","588.967391304","#808080","no","legacy","legacy","legacy","0","uniform","1","undefined","undefined","undefined","1","a","0","0","0","91","0","0","91","91","0","0","0","91","91","0","91","Tue May  1 09:34:31 2018","#000000","high","3","The main experiment item","yes","","exp2.osexp","/Users/tom/github/sft-fraction/exp2","mono","Zapfino","no","mono","no","24","no","white","no","yes","800","legacy","91","91","0","/Users/tom/github/sft-fraction/exp2/data/subject-1b.csv","legacy","#757575","low","3","Jazzy James","3.1.9","0","a","NA","space","space","space","a","NA","584","NA","22192","8391","3484","584","NA","2","legacy","1024","2","48000","-16","experiment","1","odd","absent","35524","35524","NA","141808","1378","35507","151596","152113","1401","23610","32022","152113","152699","NA","151580","Fraction component detection task","85","54185","92","yes","1280"
"92.4731182796","92.4731182796","588.924731183","588.924731183","#808080","no","legacy","legacy","legacy","0","uniform","1","undefined","undefined","undefined","1","a","0","0","0","92","0","0","92","92","0","0","0","92","92","0","92","Tue May  1 09:34:31 2018","#757575","low","3","The main experiment item","yes","","exp2.osexp","/Users/tom/github/sft-fraction/exp2","Zapfino","Zapfino","no","mono","no","24","no","white","no","yes","800","legacy","92","92","0","/Users/tom/github/sft-fraction/exp2/data/subject-1b.csv","legacy","#757575","low","2","Jazzy James","3.1.9","0","a","NA","space","space","space","a","NA","585","NA","22192","8391","3484","585","NA","2","legacy","1024","2","48000","-16","experiment","1","odd","absent","35524","35524","NA","141808","1378","35507","152778","153296","1401","23610","32022","153296","153883","NA","152763","Fraction component detection task","86","54770","93","yes","1280"
"92.5531914894","92.5531914894","591.20212766","591.20212766","#808080","no","legacy","legacy","legacy","0","uniform","1","undefined","undefined","undefined","1","l","0","0","0","93","0","0","93","93","0","0","0","93","93","0","93","Tue May  1 09:34:31 2018","#757575","low","7","The main experiment item","yes","","exp2.osexp","/Users/tom/github/sft-fraction/exp2","Zapfino","Zapfino","no","mono","no","24","no","white","no","yes","800","legacy","93","93","0","/Users/tom/github/sft-fraction/exp2/data/subject-1b.csv","legacy","#757575","low","2","Jazzy James","3.1.9","0","l","NA","space","space","space","l","NA","803","NA","22192","8391","3484","803","NA","2","legacy","1024","2","48000","-16","experiment","1","odd","present","35524","35524","NA","141808","1378","35507","153962","154478","1401","23610","32022","154478","155285","NA","153947","Fraction component detection task","87","55573","94","yes","1280"
"92.6315789474","92.6315789474","591.831578947","591.831578947","#808080","no","legacy","legacy","legacy","0","uniform","1","undefined","undefined","undefined","1","a","0","0","0","94","0","0","94","94","0","0","0","94","94","0","94","Tue May  1 09:34:31 2018","#000000","high","4","The main experiment item","yes","","exp2.osexp","/Users/tom/github/sft-fraction/exp2","mono","mono","no","mono","no","24","no","white","no","yes","800","legacy","94","94","0","/Users/tom/github/sft-fraction/exp2/data/subject-1b.csv","legacy","#000000","high","2","Jazzy James","3.1.9","0","a","NA","space","space","space","a","NA","651","NA","22192","8391","3484","651","NA","2","legacy","1024","2","48000","-16","experiment","1","odd","absent","35524","35524","NA","141808","1378","35507","155367","155886","1401","23610","32022","155886","156541","NA","155352","Fraction component detection task","88","56224","95","yes","1280"
"92.7083333333","92.7083333333","591.302083333","591.302083333","#808080","no","legacy","legacy","legacy","0","uniform","1","undefined","undefined","undefined","1","a","0","0","0","95","0","0","95","95","0","0","0","95","95","0","95","Tue May  1 09:34:31 2018","#757575","low","2","The main experiment item","yes","","exp2.osexp","/Users/tom/github/sft-fraction/exp2","Zapfino","Zapfino","no","mono","no","24","no","white","no","yes","800","legacy","95","95","0","/Users/tom/github/sft-fraction/exp2/data/subject-1b.csv","legacy","#757575","low","4","Jazzy James","3.1.9","0","a","NA","space","space","space","a","NA","541","NA","22192","8391","3484","541","NA","2","legacy","1024","2","48000","-16","experiment","1","odd","absent","35524","35524","NA","141808","1378","35507","156627","157148","1401","23610","32022","157148","157692","NA","156611","Fraction component detection task","89","56765","96","yes","1280"
"92.7835051546","92.7835051546","592.06185567","592.06185567","#808080","no","legacy","legacy","legacy","0","uniform","1","undefined","undefined","undefined","1","a","0","0","0","96","0","0","96","96","0","0","0","96","96","0","96","Tue May  1 09:34:31 2018","#757575","low","4","The main experiment item","yes","","exp2.osexp","/Users/tom/github/sft-fraction/exp2","Zapfino","Zapfino","no","mono","no","24","no","white","no","yes","800","legacy","96","96","0","/Users/tom/github/sft-fraction/exp2/data/subject-1b.csv","legacy","#757575","low","3","Jazzy James","3.1.9","0","a","NA","space","space","space","a","NA","665","NA","22192","8391","3484","665","NA","2","legacy","1024","2","48000","-16","experiment","1","odd","absent","35524","35524","NA","141808","1378","35507","157780","158296","1401","23610","32022","158296","158964","NA","157764","Fraction component detection task","90","57430","97","yes","1280"
"92.8571428571","92.8571428571","592.448979592","592.448979592","#808080","no","legacy","legacy","legacy","0","uniform","1","undefined","undefined","undefined","1","l","0","0","0","97","0","0","97","97","0","0","0","97","97","0","97","Tue May  1 09:34:31 2018","#000000","high","4","The main experiment item","yes","","exp2.osexp","/Users/tom/github/sft-fraction/exp2","mono","mono","no","mono","no","24","no","white","no","yes","800","legacy","97","97","0","/Users/tom/github/sft-fraction/exp2/data/subject-1b.csv","legacy","#000000","high","8","Jazzy James","3.1.9","0","l","NA","space","space","space","l","NA","630","NA","22192","8391","3484","630","NA","2","legacy","1024","2","48000","-16","experiment","1","odd","present","35524","35524","NA","141808","1378","35507","159047","159563","1401","23610","32022","159563","160196","NA","159027","Fraction component detection task","91","58060","98","yes","1280"
"92.9292929293","92.9292929293","592.080808081","592.080808081","#808080","no","legacy","legacy","legacy","0","uniform","1","undefined","undefined","undefined","1","l","0","0","0","98","0","0","98","98","0","0","0","98","98","0","98","Tue May  1 09:34:31 2018","#000000","high","2","The main experiment item","yes","","exp2.osexp","/Users/tom/github/sft-fraction/exp2","mono","mono","no","mono","no","24","no","white","no","yes","800","legacy","98","98","0","/Users/tom/github/sft-fraction/exp2/data/subject-1b.csv","legacy","#000000","high","7","Jazzy James","3.1.9","0","l","NA","space","space","space","l","NA","556","NA","22192","8391","3484","556","NA","2","legacy","1024","2","48000","-16","experiment","1","odd","present","35524","35524","NA","141808","1378","35507","160281","160797","1401","23610","32022","160797","161356","NA","160261","Fraction component detection task","92","58616","99","yes","1280"
"93","93","593.62","593.62","#808080","no","legacy","legacy","legacy","0","uniform","1","undefined","undefined","undefined","1","a","0","0","0","99","0","0","99","99","0","0","0","99","99","0","99","Tue May  1 09:34:31 2018","#757575","low","2","The main experiment item","yes","","exp2.osexp","/Users/tom/github/sft-fraction/exp2","Zapfino","mono","no","mono","no","24","no","white","no","yes","800","legacy","99","99","0","/Users/tom/github/sft-fraction/exp2/data/subject-1b.csv","legacy","#000000","high","4","Jazzy James","3.1.9","0","a","NA","space","space","space","a","NA","746","NA","22192","8391","3484","746","NA","2","legacy","1024","2","48000","-16","experiment","1","odd","absent","35524","35524","NA","141808","1378","35507","161445","161967","1401","23610","32022","161967","162717","NA","161425","Fraction component detection task","93","59362","100","yes","1280"
"93.0693069307","93.0693069307","594.148514851","594.148514851","#808080","no","legacy","legacy","legacy","0","uniform","1","undefined","undefined","undefined","1","l","0","0","0","100","0","0","100","100","0","0","0","100","100","0","100","Tue May  1 09:34:31 2018","#757575","low","7","The main experiment item","yes","","exp2.osexp","/Users/tom/github/sft-fraction/exp2","Zapfino","Zapfino","no","mono","no","24","no","white","no","yes","800","legacy","100","100","0","/Users/tom/github/sft-fraction/exp2/data/subject-1b.csv","legacy","#757575","low","3","Jazzy James","3.1.9","0","l","NA","space","space","space","l","NA","647","NA","22192","8391","3484","647","NA","2","legacy","1024","2","48000","-16","experiment","1","odd","present","35524","35524","NA","141808","1378","35507","162798","163314","1401","23610","32022","163314","163964","NA","162783","Fraction component detection task","94","60009","101","yes","1280"
"93.137254902","93.137254902","594.019607843","594.019607843","#808080","no","legacy","legacy","legacy","0","uniform","1","undefined","undefined","undefined","1","a","0","0","0","101","0","0","101","101","0","0","0","101","101","0","101","Tue May  1 09:34:31 2018","#757575","low","2","The main experiment item","yes","","exp2.osexp","/Users/tom/github/sft-fraction/exp2","Zapfino","mono","no","mono","no","24","no","white","no","yes","800","legacy","101","101","0","/Users/tom/github/sft-fraction/exp2/data/subject-1b.csv","legacy","#000000","high","4","Jazzy James","3.1.9","0","a","NA","space","space","space","a","NA","581","NA","22192","8391","3484","581","NA","2","legacy","1024","2","48000","-16","experiment","1","odd","absent","35524","35524","NA","141808","1378","35507","164056","164572","1401","23610","32022","164572","165157","NA","164034","Fraction component detection task","95","60590","102","yes","1280"
"93.2038834951","93.2038834951","594.077669903","594.077669903","#808080","no","legacy","legacy","legacy","0","uniform","1","undefined","undefined","undefined","1","l","0","0","0","102","0","0","102","102","0","0","0","102","102","0","102","Tue May  1 09:34:31 2018","#000000","high","8","The main experiment item","yes","","exp2.osexp","/Users/tom/github/sft-fraction/exp2","mono","mono","no","mono","no","24","no","white","no","yes","800","legacy","102","102","0","/Users/tom/github/sft-fraction/exp2/data/subject-1b.csv","legacy","#000000","high","6","Jazzy James","3.1.9","0","l","NA","space","space","space","l","NA","600","NA","22192","8391","3484","600","NA","2","legacy","1024","2","48000","-16","experiment","1","odd","present","35524","35524","NA","141808","1378","35507","165236","165752","1401","23610","32022","165753","166356","NA","165221","Fraction component detection task","96","61190","103","yes","1280"
"93.2692307692","93.2692307692","595","595","#808080","no","legacy","legacy","legacy","0","uniform","1","undefined","undefined","undefined","1","a","0","0","0","103","0","0","103","103","0","0","0","103","103","0","103","Tue May  1 09:34:31 2018","#757575","low","4","The main experiment item","yes","","exp2.osexp","/Users/tom/github/sft-fraction/exp2","Zapfino","Zapfino","no","mono","no","24","no","white","no","yes","800","legacy","103","103","0","/Users/tom/github/sft-fraction/exp2/data/subject-1b.csv","legacy","#757575","low","4","Jazzy James","3.1.9","0","a","NA","space","space","space","a","NA","690","NA","22192","8391","3484","690","NA","2","legacy","1024","2","48000","-16","experiment","1","odd","absent","35524","35524","NA","141808","1378","35507","166441","166959","1401","23610","32022","166959","167652","NA","166423","Fraction component detection task","97","61880","104","yes","1280"
"93.3333333333","93.3333333333","595.638095238","595.638095238","#808080","no","legacy","legacy","legacy","0","uniform","1","undefined","undefined","undefined","1","a","0","0","0","104","0","0","104","104","0","0","0","104","104","0","104","Tue May  1 09:34:31 2018","#757575","low","4","The main experiment item","yes","","exp2.osexp","/Users/tom/github/sft-fraction/exp2","Zapfino","mono","no","mono","no","24","no","white","no","yes","800","legacy","104","104","0","/Users/tom/github/sft-fraction/exp2/data/subject-1b.csv","legacy","#000000","high","4","Jazzy James","3.1.9","0","a","NA","space","space","space","a","NA","662","NA","22192","8391","3484","662","NA","2","legacy","1024","2","48000","-16","experiment","1","odd","absent","35524","35524","NA","141808","1378","35507","167732","168250","1401","23610","32022","168251","168916","NA","167717","Fraction component detection task","98","62542","105","yes","1280"
"93.3962264151","93.3962264151","596.198113208","596.198113208","#808080","no","legacy","legacy","legacy","0","uniform","1","undefined","undefined","undefined","1","l","0","0","0","105","0","0","105","105","0","0","0","105","105","0","105","Tue May  1 09:34:31 2018","#000000","high","8","The main experiment item","yes","","exp2.osexp","/Users/tom/github/sft-fraction/exp2","mono","Zapfino","no","mono","no","24","no","white","no","yes","800","legacy","105","105","0","/Users/tom/github/sft-fraction/exp2/data/subject-1b.csv","legacy","#757575","low","3","Jazzy James","3.1.9","0","l","NA","space","space","space","l","NA","655","NA","22192","8391","3484","655","NA","2","legacy","1024","2","48000","-16","experiment","1","odd","present","35524","35524","NA","141808","1378","35507","168996","169515","1401","23610","32022","169515","170172","NA","168981","Fraction component detection task","99","63197","106","yes","1280"
"93.4579439252","93.4579439252","595.785046729","595.785046729","#808080","no","legacy","legacy","legacy","0","uniform","1","undefined","undefined","undefined","1","a","0","0","0","106","0","0","106","106","0","0","0","106","106","0","106","Tue May  1 09:34:31 2018","#757575","low","3","The main experiment item","yes","","exp2.osexp","/Users/tom/github/sft-fraction/exp2","Zapfino","Zapfino","no","mono","no","24","no","white","no","yes","800","legacy","106","106","0","/Users/tom/github/sft-fraction/exp2/data/subject-1b.csv","legacy","#757575","low","4","Jazzy James","3.1.9","0","a","NA","space","space","space","a","NA","552","NA","22192","8391","3484","552","NA","2","legacy","1024","2","48000","-16","experiment","1","odd","absent","35524","35524","NA","141808","1378","35507","170254","170770","1401","23610","32022","170770","171326","NA","170238","Fraction component detection task","100","63749","107","yes","1280"
"93.5185185185","93.5185185185","595.194444444","595.194444444","#808080","no","legacy","legacy","legacy","0","uniform","1","undefined","undefined","undefined","1","a","0","0","0","107","0","0","107","107","0","0","0","107","107","0","107","Tue May  1 09:34:31 2018","#757575","low","4","The main experiment item","yes","","exp2.osexp","/Users/tom/github/sft-fraction/exp2","Zapfino","Zapfino","no","mono","no","24","no","white","no","yes","800","legacy","107","107","0","/Users/tom/github/sft-fraction/exp2/data/subject-1b.csv","legacy","#757575","low","2","Jazzy James","3.1.9","0","a","NA","space","space","space","a","NA","532","NA","22192","8391","3484","532","NA","2","legacy","1024","2","48000","-16","experiment","1","odd","absent","35524","35524","NA","141808","1378","35507","171416","171933","1401","23610","32022","171934","172469","NA","171396","Fraction component detection task","101","64281","108","yes","1280"
