"acc","accuracy","average_response_time","avg_rt","background","bidi","canvas_backend","clock_backend","color_backend","compensation","coordinates","correct","correct_instructions1","correct_instructions2","correct_instructions3","correct_keyboard_response","correct_response","count_block_loop","count_block_sequence","count_end_of_experiment","count_error","count_experiment","count_experimental_loop","count_fixation_dot","count_fraction","count_instructions1","count_instructions2","count_instructions3","count_keyboard_response","count_logger","count_rest","count_trial_sequence","datetime","denomColor","denomSalience","denominator","description","disable_garbage_collection","empty_column","experiment_file","experiment_path","fontDenom","fontNum","font_bold","font_family","font_italic","font_size","font_underline","foreground","form_clicks","fullscreen","height","keyboard_backend","live_row","live_row_block_loop","live_row_experimental_loop","logfile","mouse_backend","numColor","numSalience","numerator","opensesame_codename","opensesame_version","repeat_cycle","response","response_end_of_experiment","response_instructions1","response_instructions2","response_instructions3","response_keyboard_response","response_rest","response_time","response_time_end_of_experiment","response_time_instructions1","response_time_instructions2","response_time_instructions3","response_time_keyboard_response","response_time_rest","round_decimals","sampler_backend","sound_buf_size","sound_channels","sound_freq","sound_sample_size","start","subject_nr","subject_parity","target","time_block_loop","time_block_sequence","time_end_of_experiment","time_error","time_experiment","time_experimental_loop","time_fixation_dot","time_fraction","time_instructions1","time_instructions2","time_instructions3","time_keyboard_response","time_logger","time_rest","time_trial_sequence","title","total_correct","total_response_time","total_responses","uniform_coordinates","width"
"100","100","1069","1069","#808080","no","legacy","legacy","legacy","0","uniform","1","undefined","undefined","undefined","1","l","0","0","0","0","0","0","0","0","0","0","0","0","0","0","0","Mon Apr 30 11:03:54 2018","#757575","low","6","The main experiment item","yes","","exp2.osexp","/Users/tom/github/sft-fraction/exp2","Zapfino","Zapfino","no","mono","no","24","no","white","no","yes","800","legacy","0","0","0","/Users/tom/github/sft-fraction/exp2/data/subject-1a.csv","legacy","#757575","low","8","Jazzy James","3.1.9","0","l","NA","right alt","space","space","l","NA","1069","NA","22406","12969","22086","1069","NA","2","legacy","1024","2","48000","-16","experiment","1","odd","present","58912","58912","NA","NA","1354","58896","59196","59712","1390","23820","36808","59713","60791","NA","59178","Fraction component detection task","1","1069","1","yes","1280"
"100","100","973.5","973.5","#808080","no","legacy","legacy","legacy","0","uniform","1","undefined","undefined","undefined","1","l","0","0","0","1","0","0","1","1","0","0","0","1","1","0","1","Mon Apr 30 11:03:54 2018","#000000","high","7","The main experiment item","yes","","exp2.osexp","/Users/tom/github/sft-fraction/exp2","mono","mono","no","mono","no","24","no","white","no","yes","800","legacy","1","1","0","/Users/tom/github/sft-fraction/exp2/data/subject-1a.csv","legacy","#000000","high","6","Jazzy James","3.1.9","0","l","NA","right alt","space","space","l","NA","878","NA","22406","12969","22086","878","NA","2","legacy","1024","2","48000","-16","experiment","1","odd","present","58912","58912","NA","NA","1354","58896","60907","61423","1390","23820","36808","61423","62303","NA","60891","Fraction component detection task","2","1947","2","yes","1280"
"100","100","915.666666667","915.666666667","#808080","no","legacy","legacy","legacy","0","uniform","1","undefined","undefined","undefined","1","a","0","0","0","2","0","0","2","2","0","0","0","2","2","0","2","Mon Apr 30 11:03:54 2018","#000000","high","4","The main experiment item","yes","","exp2.osexp","/Users/tom/github/sft-fraction/exp2","mono","Zapfino","no","mono","no","24","no","white","no","yes","800","legacy","2","2","0","/Users/tom/github/sft-fraction/exp2/data/subject-1a.csv","legacy","#757575","low","3","Jazzy James","3.1.9","0","a","NA","right alt","space","space","a","NA","800","NA","22406","12969","22086","800","NA","2","legacy","1024","2","48000","-16","experiment","1","odd","absent","58912","58912","NA","NA","1354","58896","62393","62910","1390","23820","36808","62910","63712","NA","62373","Fraction component detection task","3","2747","3","yes","1280"
"100","100","834","834","#808080","no","legacy","legacy","legacy","0","uniform","1","undefined","undefined","undefined","1","a","0","0","0","3","0","0","3","3","0","0","0","3","3","0","3","Mon Apr 30 11:03:54 2018","#000000","high","2","The main experiment item","yes","","exp2.osexp","/Users/tom/github/sft-fraction/exp2","mono","mono","no","mono","no","24","no","white","no","yes","800","legacy","3","3","0","/Users/tom/github/sft-fraction/exp2/data/subject-1a.csv","legacy","#000000","high","2","Jazzy James","3.1.9","0","a","NA","right alt","space","space","a","NA","589","NA","22406","12969","22086","589","NA","2","legacy","1024","2","48000","-16","experiment","1","odd","absent","58912","58912","NA","NA","1354","58896","63800","64320","1390","23820","36808","64321","64912","NA","63778","Fraction component detection task","4","3336","4","yes","1280"
"100","100","778","778","#808080","no","legacy","legacy","legacy","0","uniform","1","undefined","undefined","undefined","1","l","0","0","0","4","0","0","4","4","0","0","0","4","4","0","4","Mon Apr 30 11:03:54 2018","#000000","high","6","The main experiment item","yes","","exp2.osexp","/Users/tom/github/sft-fraction/exp2","mono","mono","no","mono","no","24","no","white","no","yes","800","legacy","4","4","0","/Users/tom/github/sft-fraction/exp2/data/subject-1a.csv","legacy","#000000","high","8","Jazzy James","3.1.9","0","l","NA","right alt","space","space","l","NA","554","NA","22406","12969","22086","554","NA","2","legacy","1024","2","48000","-16","experiment","1","odd","present","58912","58912","NA","NA","1354","58896","64990","65507","1390","23820","36808","65507","66063","NA","64975","Fraction component detection task","5","3890","5","yes","1280"
"100","100","846.166666667","846.166666667","#808080","no","legacy","legacy","legacy","0","uniform","1","undefined","undefined","undefined","1","a","0","0","0","5","0","0","5","5","0","0","0","5","5","0","5","Mon Apr 30 11:03:54 2018","#000000","high","2","The main experiment item","yes","","exp2.osexp","/Users/tom/github/sft-fraction/exp2","mono","Zapfino","no","mono","no","24","no","white","no","yes","800","legacy","5","5","0","/Users/tom/github/sft-fraction/exp2/data/subject-1a.csv","legacy","#757575","low","4","Jazzy James","3.1.9","0","a","NA","right alt","space","space","a","NA","1187","NA","22406","12969","22086","1187","NA","2","legacy","1024","2","48000","-16","experiment","1","odd","absent","58912","58912","NA","NA","1354","58896","66150","66667","1390","23820","36808","66667","67856","NA","66129","Fraction component detection task","6","5077","6","yes","1280"
"100","100","798.714285714","798.714285714","#808080","no","legacy","legacy","legacy","0","uniform","1","undefined","undefined","undefined","1","a","0","0","0","6","0","0","6","6","0","0","0","6","6","0","6","Mon Apr 30 11:03:54 2018","#000000","high","3","The main experiment item","yes","","exp2.osexp","/Users/tom/github/sft-fraction/exp2","mono","Zapfino","no","mono","no","24","no","white","no","yes","800","legacy","6","6","0","/Users/tom/github/sft-fraction/exp2/data/subject-1a.csv","legacy","#757575","low","2","Jazzy James","3.1.9","0","a","NA","right alt","space","space","a","NA","514","NA","22406","12969","22086","514","NA","2","legacy","1024","2","48000","-16","experiment","1","odd","absent","58912","58912","NA","NA","1354","58896","67936","68453","1390","23820","36808","68453","68968","NA","67921","Fraction component detection task","7","5591","7","yes","1280"
"100","100","778.25","778.25","#808080","no","legacy","legacy","legacy","0","uniform","1","undefined","undefined","undefined","1","l","0","0","0","7","0","0","7","7","0","0","0","7","7","0","7","Mon Apr 30 11:03:54 2018","#757575","low","2","The main experiment item","yes","","exp2.osexp","/Users/tom/github/sft-fraction/exp2","Zapfino","Zapfino","no","mono","no","24","no","white","no","yes","800","legacy","7","7","0","/Users/tom/github/sft-fraction/exp2/data/subject-1a.csv","legacy","#757575","low","8","Jazzy James","3.1.9","0","l","NA","right alt","space","space","l","NA","635","NA","22406","12969","22086","635","NA","2","legacy","1024","2","48000","-16","experiment","1","odd","present","58912","58912","NA","NA","1354","58896","69058","69578","1390","23820","36808","69579","70215","NA","69038","Fraction component detection task","8","6226","8","yes","1280"
"88.8888888889","88.8888888889","814.888888889","814.888888889","#808080","no","legacy","legacy","legacy","0","uniform","0","undefined","undefined","undefined","0","l","0","0","0","8","0","0","8","8","0","0","0","8","8","0","8","Mon Apr 30 11:03:54 2018","#000000","high","8","The main experiment item","yes","","exp2.osexp","/Users/tom/github/sft-fraction/exp2","mono","mono","no","mono","no","24","no","white","no","yes","800","legacy","8","8","0","/Users/tom/github/sft-fraction/exp2/data/subject-1a.csv","legacy","#000000","high","3","Jazzy James","3.1.9","0","a","NA","right alt","space","space","a","NA","1108","NA","22406","12969","22086","1108","NA","2","legacy","1024","2","48000","-16","experiment","1","odd","present","58912","58912","NA","NA","1354","58896","70299","70819","1390","23820","36808","70819","71928","NA","70281","Fraction component detection task","8","7334","9","yes","1280"
"90","90","813.1","813.1","#808080","no","legacy","legacy","legacy","0","uniform","1","undefined","undefined","undefined","1","a","0","0","0","9","0","0","9","9","0","0","0","9","9","0","9","Mon Apr 30 11:03:54 2018","#000000","high","3","The main experiment item","yes","","exp2.osexp","/Users/tom/github/sft-fraction/exp2","mono","Zapfino","no","mono","no","24","no","white","no","yes","800","legacy","9","9","0","/Users/tom/github/sft-fraction/exp2/data/subject-1a.csv","legacy","#757575","low","3","Jazzy James","3.1.9","0","a","NA","right alt","space","space","a","NA","797","NA","22406","12969","22086","797","NA","2","legacy","1024","2","48000","-16","experiment","1","odd","absent","58912","58912","NA","71947","1354","58896","73030","73552","1390","23820","36808","73553","74351","NA","73014","Fraction component detection task","9","8131","10","yes","1280"
"90.9090909091","90.9090909091","834.090909091","834.090909091","#808080","no","legacy","legacy","legacy","0","uniform","1","undefined","undefined","undefined","1","l","0","0","0","10","0","0","10","10","0","0","0","10","10","0","10","Mon Apr 30 11:03:54 2018","#757575","low","7","The main experiment item","yes","","exp2.osexp","/Users/tom/github/sft-fraction/exp2","Zapfino","mono","no","mono","no","24","no","white","no","yes","800","legacy","10","10","0","/Users/tom/github/sft-fraction/exp2/data/subject-1a.csv","legacy","#000000","high","2","Jazzy James","3.1.9","0","l","NA","right alt","space","space","l","NA","1044","NA","22406","12969","22086","1044","NA","2","legacy","1024","2","48000","-16","experiment","1","odd","present","58912","58912","NA","71947","1354","58896","74437","74955","1390","23820","36808","74955","76000","NA","74416","Fraction component detection task","10","9175","11","yes","1280"
"91.6666666667","91.6666666667","850.416666667","850.416666667","#808080","no","legacy","legacy","legacy","0","uniform","1","undefined","undefined","undefined","1","a","0","0","0","11","0","0","11","11","0","0","0","11","11","0","11","Mon Apr 30 11:03:54 2018","#000000","high","4","The main experiment item","yes","","exp2.osexp","/Users/tom/github/sft-fraction/exp2","mono","Zapfino","no","mono","no","24","no","white","no","yes","800","legacy","11","11","0","/Users/tom/github/sft-fraction/exp2/data/subject-1a.csv","legacy","#757575","low","2","Jazzy James","3.1.9","0","a","NA","right alt","space","space","a","NA","1030","NA","22406","12969","22086","1030","NA","2","legacy","1024","2","48000","-16","experiment","1","odd","absent","58912","58912","NA","71947","1354","58896","76084","76601","1390","23820","36808","76601","77633","NA","76064","Fraction component detection task","11","10205","12","yes","1280"
"92.3076923077","92.3076923077","841.461538462","841.461538462","#808080","no","legacy","legacy","legacy","0","uniform","1","undefined","undefined","undefined","1","a","0","0","0","12","0","0","12","12","0","0","0","12","12","0","12","Mon Apr 30 11:03:54 2018","#757575","low","3","The main experiment item","yes","","exp2.osexp","/Users/tom/github/sft-fraction/exp2","Zapfino","Zapfino","no","mono","no","24","no","white","no","yes","800","legacy","12","12","0","/Users/tom/github/sft-fraction/exp2/data/subject-1a.csv","legacy","#757575","low","3","Jazzy James","3.1.9","0","a","NA","right alt","space","space","a","NA","734","NA","22406","12969","22086","734","NA","2","legacy","1024","2","48000","-16","experiment","1","odd","absent","58912","58912","NA","71947","1354","58896","77716","78232","1390","23820","36808","78233","78969","NA","77700","Fraction component detection task","12","10939","13","yes","1280"
"92.8571428571","92.8571428571","838","838","#808080","no","legacy","legacy","legacy","0","uniform","1","undefined","undefined","undefined","1","a","0","0","0","13","0","0","13","13","0","0","0","13","13","0","13","Mon Apr 30 11:03:54 2018","#757575","low","3","The main experiment item","yes","","exp2.osexp","/Users/tom/github/sft-fraction/exp2","Zapfino","mono","no","mono","no","24","no","white","no","yes","800","legacy","13","13","0","/Users/tom/github/sft-fraction/exp2/data/subject-1a.csv","legacy","#000000","high","4","Jazzy James","3.1.9","0","a","NA","right alt","space","space","a","NA","793","NA","22406","12969","22086","793","NA","2","legacy","1024","2","48000","-16","experiment","1","odd","absent","58912","58912","NA","71947","1354","58896","79047","79565","1390","23820","36808","79565","80360","NA","79031","Fraction component detection task","13","11732","14","yes","1280"
"93.3333333333","93.3333333333","829.666666667","829.666666667","#808080","no","legacy","legacy","legacy","0","uniform","1","undefined","undefined","undefined","1","l","0","0","0","14","0","0","14","14","0","0","0","14","14","0","14","Mon Apr 30 11:03:54 2018","#000000","high","6","The main experiment item","yes","","exp2.osexp","/Users/tom/github/sft-fraction/exp2","mono","mono","no","mono","no","24","no","white","no","yes","800","legacy","14","14","0","/Users/tom/github/sft-fraction/exp2/data/subject-1a.csv","legacy","#000000","high","4","Jazzy James","3.1.9","0","l","NA","right alt","space","space","l","NA","713","NA","22406","12969","22086","713","NA","2","legacy","1024","2","48000","-16","experiment","1","odd","present","58912","58912","NA","71947","1354","58896","80441","80958","1390","23820","36808","80958","81673","NA","80426","Fraction component detection task","14","12445","15","yes","1280"
"93.75","93.75","833.75","833.75","#808080","no","legacy","legacy","legacy","0","uniform","1","undefined","undefined","undefined","1","a","0","0","0","15","0","0","15","15","0","0","0","15","15","0","15","Mon Apr 30 11:03:54 2018","#757575","low","4","The main experiment item","yes","","exp2.osexp","/Users/tom/github/sft-fraction/exp2","Zapfino","mono","no","mono","no","24","no","white","no","yes","800","legacy","15","15","0","/Users/tom/github/sft-fraction/exp2/data/subject-1a.csv","legacy","#000000","high","2","Jazzy James","3.1.9","0","a","NA","right alt","space","space","a","NA","895","NA","22406","12969","22086","895","NA","2","legacy","1024","2","48000","-16","experiment","1","odd","absent","58912","58912","NA","71947","1354","58896","81759","82279","1390","23820","36808","82279","83176","NA","81738","Fraction component detection task","15","13340","16","yes","1280"
"94.1176470588","94.1176470588","822.294117647","822.294117647","#808080","no","legacy","legacy","legacy","0","uniform","1","undefined","undefined","undefined","1","a","0","0","0","16","0","0","16","16","0","0","0","16","16","0","16","Mon Apr 30 11:03:54 2018","#757575","low","2","The main experiment item","yes","","exp2.osexp","/Users/tom/github/sft-fraction/exp2","Zapfino","mono","no","mono","no","24","no","white","no","yes","800","legacy","16","16","0","/Users/tom/github/sft-fraction/exp2/data/subject-1a.csv","legacy","#000000","high","2","Jazzy James","3.1.9","0","a","NA","right alt","space","space","a","NA","639","NA","22406","12969","22086","639","NA","2","legacy","1024","2","48000","-16","experiment","1","odd","absent","58912","58912","NA","71947","1354","58896","83258","83775","1390","23820","36808","83775","84416","NA","83243","Fraction component detection task","16","13979","17","yes","1280"
"94.4444444444","94.4444444444","815","815","#808080","no","legacy","legacy","legacy","0","uniform","1","undefined","undefined","undefined","1","a","0","0","0","17","0","0","17","17","0","0","0","17","17","0","17","Mon Apr 30 11:03:54 2018","#000000","high","2","The main experiment item","yes","","exp2.osexp","/Users/tom/github/sft-fraction/exp2","mono","Zapfino","no","mono","no","24","no","white","no","yes","800","legacy","17","17","0","/Users/tom/github/sft-fraction/exp2/data/subject-1a.csv","legacy","#757575","low","3","Jazzy James","3.1.9","0","a","NA","right alt","space","space","a","NA","691","NA","22406","12969","22086","691","NA","2","legacy","1024","2","48000","-16","experiment","1","odd","absent","58912","58912","NA","71947","1354","58896","84503","85020","1390","23820","36808","85020","85713","NA","84483","Fraction component detection task","17","14670","18","yes","1280"
"94.7368421053","94.7368421053","803.315789474","803.315789474","#808080","no","legacy","legacy","legacy","0","uniform","1","undefined","undefined","undefined","1","l","0","0","0","18","0","0","18","18","0","0","0","18","18","0","18","Mon Apr 30 11:03:54 2018","#000000","high","4","The main experiment item","yes","","exp2.osexp","/Users/tom/github/sft-fraction/exp2","mono","mono","no","mono","no","24","no","white","no","yes","800","legacy","18","18","0","/Users/tom/github/sft-fraction/exp2/data/subject-1a.csv","legacy","#000000","high","7","Jazzy James","3.1.9","0","l","NA","right alt","space","space","l","NA","593","NA","22406","12969","22086","593","NA","2","legacy","1024","2","48000","-16","experiment","1","odd","present","58912","58912","NA","71947","1354","58896","85799","86318","1390","23820","36808","86318","86913","NA","85784","Fraction component detection task","18","15263","19","yes","1280"
"95","95","794.35","794.35","#808080","no","legacy","legacy","legacy","0","uniform","1","undefined","undefined","undefined","1","a","0","0","0","19","0","0","19","19","0","0","0","19","19","0","19","Mon Apr 30 11:03:54 2018","#000000","high","4","The main experiment item","yes","","exp2.osexp","/Users/tom/github/sft-fraction/exp2","mono","mono","no","mono","no","24","no","white","no","yes","800","legacy","19","19","0","/Users/tom/github/sft-fraction/exp2/data/subject-1a.csv","legacy","#000000","high","3","Jazzy James","3.1.9","0","a","NA","right alt","space","space","a","NA","624","NA","22406","12969","22086","624","NA","2","legacy","1024","2","48000","-16","experiment","1","odd","absent","58912","58912","NA","71947","1354","58896","87001","87518","1390","23820","36808","87518","88144","NA","86981","Fraction component detection task","19","15887","20","yes","1280"
"95.2380952381","95.2380952381","797.714285714","797.714285714","#808080","no","legacy","legacy","legacy","0","uniform","1","undefined","undefined","undefined","1","a","0","0","0","20","0","0","20","20","0","0","0","20","20","0","20","Mon Apr 30 11:03:54 2018","#757575","low","2","The main experiment item","yes","","exp2.osexp","/Users/tom/github/sft-fraction/exp2","Zapfino","mono","no","mono","no","24","no","white","no","yes","800","legacy","20","20","0","/Users/tom/github/sft-fraction/exp2/data/subject-1a.csv","legacy","#000000","high","4","Jazzy James","3.1.9","0","a","NA","right alt","space","space","a","NA","865","NA","22406","12969","22086","865","NA","2","legacy","1024","2","48000","-16","experiment","1","odd","absent","58912","58912","NA","71947","1354","58896","88231","88749","1390","23820","36808","88749","89616","NA","88210","Fraction component detection task","20","16752","21","yes","1280"
"95.4545454545","95.4545454545","794.045454545","794.045454545","#808080","no","legacy","legacy","legacy","0","uniform","1","undefined","undefined","undefined","1","a","0","0","0","21","0","0","21","21","0","0","0","21","21","0","21","Mon Apr 30 11:03:54 2018","#000000","high","3","The main experiment item","yes","","exp2.osexp","/Users/tom/github/sft-fraction/exp2","mono","mono","no","mono","no","24","no","white","no","yes","800","legacy","21","21","0","/Users/tom/github/sft-fraction/exp2/data/subject-1a.csv","legacy","#000000","high","2","Jazzy James","3.1.9","0","a","NA","right alt","space","space","a","NA","717","NA","22406","12969","22086","717","NA","2","legacy","1024","2","48000","-16","experiment","1","odd","absent","58912","58912","NA","71947","1354","58896","89701","90217","1390","23820","36808","90218","90937","NA","89681","Fraction component detection task","21","17469","22","yes","1280"
"95.652173913","95.652173913","787.434782609","787.434782609","#808080","no","legacy","legacy","legacy","0","uniform","1","undefined","undefined","undefined","1","l","0","0","0","22","0","0","22","22","0","0","0","22","22","0","22","Mon Apr 30 11:03:54 2018","#757575","low","8","The main experiment item","yes","","exp2.osexp","/Users/tom/github/sft-fraction/exp2","Zapfino","Zapfino","no","mono","no","24","no","white","no","yes","800","legacy","22","22","0","/Users/tom/github/sft-fraction/exp2/data/subject-1a.csv","legacy","#757575","low","7","Jazzy James","3.1.9","0","l","NA","right alt","space","space","l","NA","642","NA","22406","12969","22086","642","NA","2","legacy","1024","2","48000","-16","experiment","1","odd","present","58912","58912","NA","71947","1354","58896","91023","91539","1390","23820","36808","91540","92184","NA","91007","Fraction component detection task","22","18111","23","yes","1280"
"91.6666666667","91.6666666667","787.833333333","787.833333333","#808080","no","legacy","legacy","legacy","0","uniform","0","undefined","undefined","undefined","0","l","0","0","0","23","0","0","23","23","0","0","0","23","23","0","23","Mon Apr 30 11:03:54 2018","#757575","low","3","The main experiment item","yes","","exp2.osexp","/Users/tom/github/sft-fraction/exp2","Zapfino","mono","no","mono","no","24","no","white","no","yes","800","legacy","23","23","0","/Users/tom/github/sft-fraction/exp2/data/subject-1a.csv","legacy","#000000","high","6","Jazzy James","3.1.9","0","a","NA","right alt","space","space","a","NA","797","NA","22406","12969","22086","797","NA","2","legacy","1024","2","48000","-16","experiment","1","odd","present","58912","58912","NA","71947","1354","58896","92266","92785","1390","23820","36808","92786","93585","NA","92250","Fraction component detection task","22","18908","24","yes","1280"
"88","88","814.8","814.8","#808080","no","legacy","legacy","legacy","0","uniform","0","undefined","undefined","undefined","0","a","0","0","0","24","0","0","24","24","0","0","0","24","24","0","24","Mon Apr 30 11:03:54 2018","#757575","low","3","The main experiment item","yes","","exp2.osexp","/Users/tom/github/sft-fraction/exp2","Zapfino","Zapfino","no","mono","no","24","no","white","no","yes","800","legacy","24","24","0","/Users/tom/github/sft-fraction/exp2/data/subject-1a.csv","legacy","#757575","low","2","Jazzy James","3.1.9","0","l","NA","right alt","space","space","l","NA","1462","NA","22406","12969","22086","1462","NA","2","legacy","1024","2","48000","-16","experiment","1","odd","absent","58912","58912","NA","93606","1354","58896","94686","95202","1390","23820","36808","95202","96666","NA","94668","Fraction component detection task","22","20370","25","yes","1280"
"88.4615384615","88.4615384615","815.538461538","815.538461538","#808080","no","legacy","legacy","legacy","0","uniform","1","undefined","undefined","undefined","1","l","0","0","0","25","0","0","25","25","0","0","0","25","25","0","25","Mon Apr 30 11:03:54 2018","#757575","low","3","The main experiment item","yes","","exp2.osexp","/Users/tom/github/sft-fraction/exp2","Zapfino","mono","no","mono","no","24","no","white","no","yes","800","legacy","25","25","0","/Users/tom/github/sft-fraction/exp2/data/subject-1a.csv","legacy","#000000","high","7","Jazzy James","3.1.9","0","l","NA","right alt","space","space","l","NA","834","NA","22406","12969","22086","834","NA","2","legacy","1024","2","48000","-16","experiment","1","odd","present","58912","58912","NA","96685","1354","58896","97768","98285","1390","23820","36808","98285","99122","NA","97752","Fraction component detection task","23","21204","26","yes","1280"
"85.1851851852","85.1851851852","812.851851852","812.851851852","#808080","no","legacy","legacy","legacy","0","uniform","0","undefined","undefined","undefined","0","l","0","0","0","26","0","0","26","26","0","0","0","26","26","0","26","Mon Apr 30 11:03:54 2018","#000000","high","7","The main experiment item","yes","","exp2.osexp","/Users/tom/github/sft-fraction/exp2","mono","mono","no","mono","no","24","no","white","no","yes","800","legacy","26","26","0","/Users/tom/github/sft-fraction/exp2/data/subject-1a.csv","legacy","#000000","high","3","Jazzy James","3.1.9","0","a","NA","right alt","space","space","a","NA","743","NA","22406","12969","22086","743","NA","2","legacy","1024","2","48000","-16","experiment","1","odd","present","58912","58912","NA","96685","1354","58896","99202","99719","1390","23820","36808","99720","100465","NA","99187","Fraction component detection task","23","21947","27","yes","1280"
"85.7142857143","85.7142857143","846.25","846.25","#808080","no","legacy","legacy","legacy","0","uniform","1","undefined","undefined","undefined","1","a","0","0","0","27","0","0","27","27","0","0","0","27","27","0","27","Mon Apr 30 11:03:54 2018","#000000","high","3","The main experiment item","yes","","exp2.osexp","/Users/tom/github/sft-fraction/exp2","mono","mono","no","mono","no","24","no","white","no","yes","800","legacy","27","27","0","/Users/tom/github/sft-fraction/exp2/data/subject-1a.csv","legacy","#000000","high","4","Jazzy James","3.1.9","0","a","NA","right alt","space","space","a","NA","1748","NA","22406","12969","22086","1748","NA","2","legacy","1024","2","48000","-16","experiment","1","odd","absent","58912","58912","NA","100489","1354","58896","101574","102091","1390","23820","36808","102092","103843","NA","101557","Fraction component detection task","24","23695","28","yes","1280"
"86.2068965517","86.2068965517","848.862068966","848.862068966","#808080","no","legacy","legacy","legacy","0","uniform","1","undefined","undefined","undefined","1","l","0","0","0","28","0","0","28","28","0","0","0","28","28","0","28","Mon Apr 30 11:03:54 2018","#757575","low","6","The main experiment item","yes","","exp2.osexp","/Users/tom/github/sft-fraction/exp2","Zapfino","mono","no","mono","no","24","no","white","no","yes","800","legacy","28","28","0","/Users/tom/github/sft-fraction/exp2/data/subject-1a.csv","legacy","#000000","high","3","Jazzy James","3.1.9","0","l","NA","right alt","space","space","l","NA","922","NA","22406","12969","22086","922","NA","2","legacy","1024","2","48000","-16","experiment","1","odd","present","58912","58912","NA","100489","1354","58896","103927","104444","1390","23820","36808","104445","105369","NA","103908","Fraction component detection task","25","24617","29","yes","1280"
"86.6666666667","86.6666666667","866","866","#808080","no","legacy","legacy","legacy","0","uniform","1","undefined","undefined","undefined","1","l","0","0","0","29","0","0","29","29","0","0","0","29","29","0","29","Mon Apr 30 11:03:54 2018","#000000","high","7","The main experiment item","yes","","exp2.osexp","/Users/tom/github/sft-fraction/exp2","mono","Zapfino","no","mono","no","24","no","white","no","yes","800","legacy","29","29","0","/Users/tom/github/sft-fraction/exp2/data/subject-1a.csv","legacy","#757575","low","2","Jazzy James","3.1.9","0","l","NA","right alt","space","space","l","NA","1363","NA","22406","12969","22086","1363","NA","2","legacy","1024","2","48000","-16","experiment","1","odd","present","58912","58912","NA","100489","1354","58896","105455","105972","1390","23820","36808","105972","107337","NA","105439","Fraction component detection task","26","25980","30","yes","1280"
"87.0967741935","87.0967741935","868.451612903","868.451612903","#808080","no","legacy","legacy","legacy","0","uniform","1","undefined","undefined","undefined","1","l","0","0","0","30","0","0","30","30","0","0","0","30","30","0","30","Mon Apr 30 11:03:54 2018","#000000","high","8","The main experiment item","yes","","exp2.osexp","/Users/tom/github/sft-fraction/exp2","mono","mono","no","mono","no","24","no","white","no","yes","800","legacy","30","30","0","/Users/tom/github/sft-fraction/exp2/data/subject-1a.csv","legacy","#000000","high","4","Jazzy James","3.1.9","0","l","NA","right alt","space","space","l","NA","942","NA","22406","12969","22086","942","NA","2","legacy","1024","2","48000","-16","experiment","1","odd","present","58912","58912","NA","100489","1354","58896","107421","107938","1390","23820","36808","107938","108882","NA","107402","Fraction component detection task","27","26922","31","yes","1280"
"87.5","87.5","861.125","861.125","#808080","no","legacy","legacy","legacy","0","uniform","1","undefined","undefined","undefined","1","a","0","0","0","31","0","0","31","31","0","0","0","31","31","0","31","Mon Apr 30 11:03:54 2018","#000000","high","3","The main experiment item","yes","","exp2.osexp","/Users/tom/github/sft-fraction/exp2","mono","mono","no","mono","no","24","no","white","no","yes","800","legacy","31","31","0","/Users/tom/github/sft-fraction/exp2/data/subject-1a.csv","legacy","#000000","high","3","Jazzy James","3.1.9","0","a","NA","right alt","space","space","a","NA","634","NA","22406","12969","22086","634","NA","2","legacy","1024","2","48000","-16","experiment","1","odd","absent","58912","58912","NA","100489","1354","58896","108966","109484","1390","23820","36808","109485","110121","NA","108948","Fraction component detection task","28","27556","32","yes","1280"
"87.8787878788","87.8787878788","866.575757576","866.575757576","#808080","no","legacy","legacy","legacy","0","uniform","1","undefined","undefined","undefined","1","l","0","0","0","32","0","0","32","32","0","0","0","32","32","0","32","Mon Apr 30 11:03:54 2018","#000000","high","7","The main experiment item","yes","","exp2.osexp","/Users/tom/github/sft-fraction/exp2","mono","mono","no","mono","no","24","no","white","no","yes","800","legacy","32","32","0","/Users/tom/github/sft-fraction/exp2/data/subject-1a.csv","legacy","#000000","high","2","Jazzy James","3.1.9","0","l","NA","right alt","space","space","l","NA","1041","NA","22406","12969","22086","1041","NA","2","legacy","1024","2","48000","-16","experiment","1","odd","present","58912","58912","NA","100489","1354","58896","110199","110720","1390","23820","36808","110720","111763","NA","110182","Fraction component detection task","29","28597","33","yes","1280"
"88.2352941176","88.2352941176","859.411764706","859.411764706","#808080","no","legacy","legacy","legacy","0","uniform","1","undefined","undefined","undefined","1","a","0","0","0","33","0","0","33","33","0","0","0","33","33","0","33","Mon Apr 30 11:03:54 2018","#000000","high","4","The main experiment item","yes","","exp2.osexp","/Users/tom/github/sft-fraction/exp2","mono","mono","no","mono","no","24","no","white","no","yes","800","legacy","33","33","0","/Users/tom/github/sft-fraction/exp2/data/subject-1a.csv","legacy","#000000","high","4","Jazzy James","3.1.9","0","a","NA","right alt","space","space","a","NA","623","NA","22406","12969","22086","623","NA","2","legacy","1024","2","48000","-16","experiment","1","odd","absent","58912","58912","NA","100489","1354","58896","111844","112361","1390","23820","36808","112361","112986","NA","111826","Fraction component detection task","30","29220","34","yes","1280"
"88.5714285714","88.5714285714","858.742857143","858.742857143","#808080","no","legacy","legacy","legacy","0","uniform","1","undefined","undefined","undefined","1","a","0","0","0","34","0","0","34","34","0","0","0","34","34","0","34","Mon Apr 30 11:03:54 2018","#757575","low","3","The main experiment item","yes","","exp2.osexp","/Users/tom/github/sft-fraction/exp2","Zapfino","mono","no","mono","no","24","no","white","no","yes","800","legacy","34","34","0","/Users/tom/github/sft-fraction/exp2/data/subject-1a.csv","legacy","#000000","high","4","Jazzy James","3.1.9","0","a","NA","right alt","space","space","a","NA","836","NA","22406","12969","22086","836","NA","2","legacy","1024","2","48000","-16","experiment","1","odd","absent","58912","58912","NA","100489","1354","58896","113071","113588","1390","23820","36808","113588","114426","NA","113050","Fraction component detection task","31","30056","35","yes","1280"
"88.8888888889","88.8888888889","850.611111111","850.611111111","#808080","no","legacy","legacy","legacy","0","uniform","1","undefined","undefined","undefined","1","a","0","0","0","35","0","0","35","35","0","0","0","35","35","0","35","Mon Apr 30 11:03:54 2018","#757575","low","2","The main experiment item","yes","","exp2.osexp","/Users/tom/github/sft-fraction/exp2","Zapfino","Zapfino","no","mono","no","24","no","white","no","yes","800","legacy","35","35","0","/Users/tom/github/sft-fraction/exp2/data/subject-1a.csv","legacy","#757575","low","3","Jazzy James","3.1.9","0","a","NA","right alt","space","space","a","NA","566","NA","22406","12969","22086","566","NA","2","legacy","1024","2","48000","-16","experiment","1","odd","absent","58912","58912","NA","100489","1354","58896","114509","115026","1390","23820","36808","115026","115594","NA","114493","Fraction component detection task","32","30622","36","yes","1280"
"89.1891891892","89.1891891892","842.216216216","842.216216216","#808080","no","legacy","legacy","legacy","0","uniform","1","undefined","undefined","undefined","1","a","0","0","0","36","0","0","36","36","0","0","0","36","36","0","36","Mon Apr 30 11:03:54 2018","#000000","high","2","The main experiment item","yes","","exp2.osexp","/Users/tom/github/sft-fraction/exp2","mono","Zapfino","no","mono","no","24","no","white","no","yes","800","legacy","36","36","0","/Users/tom/github/sft-fraction/exp2/data/subject-1a.csv","legacy","#757575","low","2","Jazzy James","3.1.9","0","a","NA","right alt","space","space","a","NA","540","NA","22406","12969","22086","540","NA","2","legacy","1024","2","48000","-16","experiment","1","odd","absent","58912","58912","NA","100489","1354","58896","115681","116197","1390","23820","36808","116197","116739","NA","115666","Fraction component detection task","33","31162","37","yes","1280"
"89.4736842105","89.4736842105","834.815789474","834.815789474","#808080","no","legacy","legacy","legacy","0","uniform","1","undefined","undefined","undefined","1","a","0","0","0","37","0","0","37","37","0","0","0","37","37","0","37","Mon Apr 30 11:03:54 2018","#757575","low","2","The main experiment item","yes","","exp2.osexp","/Users/tom/github/sft-fraction/exp2","Zapfino","Zapfino","no","mono","no","24","no","white","no","yes","800","legacy","37","37","0","/Users/tom/github/sft-fraction/exp2/data/subject-1a.csv","legacy","#757575","low","4","Jazzy James","3.1.9","0","a","NA","right alt","space","space","a","NA","561","NA","22406","12969","22086","561","NA","2","legacy","1024","2","48000","-16","experiment","1","odd","absent","58912","58912","NA","100489","1354","58896","116825","117344","1390","23820","36808","117344","117907","NA","116804","Fraction component detection task","34","31723","38","yes","1280"
"89.7435897436","89.7435897436","830.615384615","830.615384615","#808080","no","legacy","legacy","legacy","0","uniform","1","undefined","undefined","undefined","1","a","0","0","0","38","0","0","38","38","0","0","0","38","38","0","38","Mon Apr 30 11:03:54 2018","#000000","high","2","The main experiment item","yes","","exp2.osexp","/Users/tom/github/sft-fraction/exp2","mono","Zapfino","no","mono","no","24","no","white","no","yes","800","legacy","38","38","0","/Users/tom/github/sft-fraction/exp2/data/subject-1a.csv","legacy","#757575","low","4","Jazzy James","3.1.9","0","a","NA","right alt","space","space","a","NA","671","NA","22406","12969","22086","671","NA","2","legacy","1024","2","48000","-16","experiment","1","odd","absent","58912","58912","NA","100489","1354","58896","117989","118505","1390","23820","36808","118505","119178","NA","117973","Fraction component detection task","35","32394","39","yes","1280"
"90","90","826.375","826.375","#808080","no","legacy","legacy","legacy","0","uniform","1","undefined","undefined","undefined","1","l","0","0","0","39","0","0","39","39","0","0","0","39","39","0","39","Mon Apr 30 11:03:54 2018","#000000","high","6","The main experiment item","yes","","exp2.osexp","/Users/tom/github/sft-fraction/exp2","mono","Zapfino","no","mono","no","24","no","white","no","yes","800","legacy","39","39","0","/Users/tom/github/sft-fraction/exp2/data/subject-1a.csv","legacy","#757575","low","8","Jazzy James","3.1.9","0","l","NA","right alt","space","space","l","NA","661","NA","22406","12969","22086","661","NA","2","legacy","1024","2","48000","-16","experiment","1","odd","present","58912","58912","NA","100489","1354","58896","119265","119787","1390","23820","36808","119787","120452","NA","119244","Fraction component detection task","36","33055","40","yes","1280"
"90.243902439","90.243902439","821.975609756","821.975609756","#808080","no","legacy","legacy","legacy","0","uniform","1","undefined","undefined","undefined","1","l","0","0","0","40","0","0","40","40","0","0","0","40","40","0","40","Mon Apr 30 11:03:54 2018","#757575","low","2","The main experiment item","yes","","exp2.osexp","/Users/tom/github/sft-fraction/exp2","Zapfino","Zapfino","no","mono","no","24","no","white","no","yes","800","legacy","40","40","0","/Users/tom/github/sft-fraction/exp2/data/subject-1a.csv","legacy","#757575","low","7","Jazzy James","3.1.9","0","l","NA","right alt","space","space","l","NA","646","NA","22406","12969","22086","646","NA","2","legacy","1024","2","48000","-16","experiment","1","odd","present","58912","58912","NA","100489","1354","58896","120541","121059","1390","23820","36808","121059","121707","NA","120521","Fraction component detection task","37","33701","41","yes","1280"
"88.0952380952","88.0952380952","825.714285714","825.714285714","#808080","no","legacy","legacy","legacy","0","uniform","0","undefined","undefined","undefined","0","a","0","0","0","41","0","0","41","41","0","0","0","41","41","0","41","Mon Apr 30 11:03:54 2018","#757575","low","3","The main experiment item","yes","","exp2.osexp","/Users/tom/github/sft-fraction/exp2","Zapfino","Zapfino","no","mono","no","24","no","white","no","yes","800","legacy","41","41","0","/Users/tom/github/sft-fraction/exp2/data/subject-1a.csv","legacy","#757575","low","4","Jazzy James","3.1.9","0","l","NA","right alt","space","space","l","NA","979","NA","22406","12969","22086","979","NA","2","legacy","1024","2","48000","-16","experiment","1","odd","absent","58912","58912","NA","100489","1354","58896","121799","122317","1390","23820","36808","122317","123298","NA","121779","Fraction component detection task","37","34680","42","yes","1280"
"88.3720930233","88.3720930233","824.697674419","824.697674419","#808080","no","legacy","legacy","legacy","0","uniform","1","undefined","undefined","undefined","1","l","0","0","0","42","0","0","42","42","0","0","0","42","42","0","42","Mon Apr 30 11:03:54 2018","#000000","high","6","The main experiment item","yes","","exp2.osexp","/Users/tom/github/sft-fraction/exp2","mono","mono","no","mono","no","24","no","white","no","yes","800","legacy","42","42","0","/Users/tom/github/sft-fraction/exp2/data/subject-1a.csv","legacy","#000000","high","3","Jazzy James","3.1.9","0","l","NA","right alt","space","space","l","NA","782","NA","22406","12969","22086","782","NA","2","legacy","1024","2","48000","-16","experiment","1","odd","present","58912","58912","NA","123322","1354","58896","124405","124923","1390","23820","36808","124923","125708","NA","124387","Fraction component detection task","38","35462","43","yes","1280"
"88.6363636364","88.6363636364","824.931818182","824.931818182","#808080","no","legacy","legacy","legacy","0","uniform","1","undefined","undefined","undefined","1","a","0","0","0","43","0","0","43","43","0","0","0","43","43","0","43","Mon Apr 30 11:03:54 2018","#757575","low","4","The main experiment item","yes","","exp2.osexp","/Users/tom/github/sft-fraction/exp2","Zapfino","mono","no","mono","no","24","no","white","no","yes","800","legacy","43","43","0","/Users/tom/github/sft-fraction/exp2/data/subject-1a.csv","legacy","#000000","high","4","Jazzy James","3.1.9","0","a","NA","right alt","space","space","a","NA","835","NA","22406","12969","22086","835","NA","2","legacy","1024","2","48000","-16","experiment","1","odd","absent","58912","58912","NA","123322","1354","58896","125788","126309","1390","23820","36808","126309","127146","NA","125772","Fraction component detection task","39","36297","44","yes","1280"
"88.8888888889","88.8888888889","821.8","821.8","#808080","no","legacy","legacy","legacy","0","uniform","1","undefined","undefined","undefined","1","l","0","0","0","44","0","0","44","44","0","0","0","44","44","0","44","Mon Apr 30 11:03:54 2018","#757575","low","6","The main experiment item","yes","","exp2.osexp","/Users/tom/github/sft-fraction/exp2","Zapfino","Zapfino","no","mono","no","24","no","white","no","yes","800","legacy","44","44","0","/Users/tom/github/sft-fraction/exp2/data/subject-1a.csv","legacy","#757575","low","3","Jazzy James","3.1.9","0","l","NA","right alt","space","space","l","NA","684","NA","22406","12969","22086","684","NA","2","legacy","1024","2","48000","-16","experiment","1","odd","present","58912","58912","NA","123322","1354","58896","127227","127747","1390","23820","36808","127748","128435","NA","127211","Fraction component detection task","40","36981","45","yes","1280"
"89.1304347826","89.1304347826","816.326086957","816.326086957","#808080","no","legacy","legacy","legacy","0","uniform","1","undefined","undefined","undefined","1","a","0","0","0","45","0","0","45","45","0","0","0","45","45","0","45","Mon Apr 30 11:03:54 2018","#757575","low","2","The main experiment item","yes","","exp2.osexp","/Users/tom/github/sft-fraction/exp2","Zapfino","Zapfino","no","mono","no","24","no","white","no","yes","800","legacy","45","45","0","/Users/tom/github/sft-fraction/exp2/data/subject-1a.csv","legacy","#757575","low","2","Jazzy James","3.1.9","0","a","NA","right alt","space","space","a","NA","570","NA","22406","12969","22086","570","NA","2","legacy","1024","2","48000","-16","experiment","1","odd","absent","58912","58912","NA","123322","1354","58896","128519","129038","1390","23820","36808","129038","129610","NA","128498","Fraction component detection task","41","37551","46","yes","1280"
"89.3617021277","89.3617021277","813.744680851","813.744680851","#808080","no","legacy","legacy","legacy","0","uniform","1","undefined","undefined","undefined","1","l","0","0","0","46","0","0","46","46","0","0","0","46","46","0","46","Mon Apr 30 11:03:54 2018","#757575","low","6","The main experiment item","yes","","exp2.osexp","/Users/tom/github/sft-fraction/exp2","Zapfino","Zapfino","no","mono","no","24","no","white","no","yes","800","legacy","46","46","0","/Users/tom/github/sft-fraction/exp2/data/subject-1a.csv","legacy","#757575","low","2","Jazzy James","3.1.9","0","l","NA","right alt","space","space","l","NA","695","NA","22406","12969","22086","695","NA","2","legacy","1024","2","48000","-16","experiment","1","odd","present","58912","58912","NA","123322","1354","58896","129692","130210","1390","23820","36808","130210","130908","NA","129676","Fraction component detection task","42","38246","47","yes","1280"
"89.5833333333","89.5833333333","817.354166667","817.354166667","#808080","no","legacy","legacy","legacy","0","uniform","1","undefined","undefined","undefined","1","l","0","0","0","47","0","0","47","47","0","0","0","47","47","0","47","Mon Apr 30 11:03:54 2018","#757575","low","2","The main experiment item","yes","","exp2.osexp","/Users/tom/github/sft-fraction/exp2","Zapfino","mono","no","mono","no","24","no","white","no","yes","800","legacy","47","47","0","/Users/tom/github/sft-fraction/exp2/data/subject-1a.csv","legacy","#000000","high","7","Jazzy James","3.1.9","0","l","NA","right alt","space","space","l","NA","987","NA","22406","12969","22086","987","NA","2","legacy","1024","2","48000","-16","experiment","1","odd","present","58912","58912","NA","123322","1354","58896","130993","131510","1390","23820","36808","131510","132499","NA","130972","Fraction component detection task","43","39233","48","yes","1280"
"89.7959183673","89.7959183673","815.673469388","815.673469388","#808080","no","legacy","legacy","legacy","0","uniform","1","undefined","undefined","undefined","1","a","0","0","0","48","0","0","48","48","0","0","0","48","48","0","48","Mon Apr 30 11:03:54 2018","#000000","high","2","The main experiment item","yes","","exp2.osexp","/Users/tom/github/sft-fraction/exp2","mono","mono","no","mono","no","24","no","white","no","yes","800","legacy","48","48","0","/Users/tom/github/sft-fraction/exp2/data/subject-1a.csv","legacy","#000000","high","3","Jazzy James","3.1.9","0","a","NA","right alt","space","space","a","NA","735","NA","22406","12969","22086","735","NA","2","legacy","1024","2","48000","-16","experiment","1","odd","absent","58912","58912","NA","123322","1354","58896","132582","133099","1390","23820","36808","133099","133836","NA","132566","Fraction component detection task","44","39968","49","yes","1280"
"90","90","818.78","818.78","#808080","no","legacy","legacy","legacy","0","uniform","1","undefined","undefined","undefined","1","l","0","0","0","49","0","0","49","49","0","0","0","49","49","0","49","Mon Apr 30 11:03:54 2018","#757575","low","7","The main experiment item","yes","","exp2.osexp","/Users/tom/github/sft-fraction/exp2","Zapfino","Zapfino","no","mono","no","24","no","white","no","yes","800","legacy","49","49","0","/Users/tom/github/sft-fraction/exp2/data/subject-1a.csv","legacy","#757575","low","4","Jazzy James","3.1.9","0","l","NA","right alt","space","space","l","NA","971","NA","22406","12969","22086","971","NA","2","legacy","1024","2","48000","-16","experiment","1","odd","present","58912","58912","NA","123322","1354","58896","133929","134445","1390","23820","36808","134446","135419","NA","133911","Fraction component detection task","45","40939","50","yes","1280"
"90.1960784314","90.1960784314","816.215686275","816.215686275","#808080","no","legacy","legacy","legacy","0","uniform","1","undefined","undefined","undefined","1","a","0","0","0","50","0","0","50","50","0","0","0","50","50","0","50","Mon Apr 30 11:03:54 2018","#757575","low","4","The main experiment item","yes","","exp2.osexp","/Users/tom/github/sft-fraction/exp2","Zapfino","Zapfino","no","mono","no","24","no","white","no","yes","800","legacy","50","50","0","/Users/tom/github/sft-fraction/exp2/data/subject-1a.csv","legacy","#757575","low","2","Jazzy James","3.1.9","0","a","NA","right alt","space","space","a","NA","688","NA","22406","12969","22086","688","NA","2","legacy","1024","2","48000","-16","experiment","1","odd","absent","58912","58912","NA","123322","1354","58896","135505","136025","1390","23820","36808","136026","136716","NA","135489","Fraction component detection task","46","41627","51","yes","1280"
"90.3846153846","90.3846153846","815.115384615","815.115384615","#808080","no","legacy","legacy","legacy","0","uniform","1","undefined","undefined","undefined","1","l","0","0","0","51","0","0","51","51","0","0","0","51","51","0","51","Mon Apr 30 11:03:54 2018","#000000","high","2","The main experiment item","yes","","exp2.osexp","/Users/tom/github/sft-fraction/exp2","mono","Zapfino","no","mono","no","24","no","white","no","yes","800","legacy","51","51","0","/Users/tom/github/sft-fraction/exp2/data/subject-1a.csv","legacy","#757575","low","7","Jazzy James","3.1.9","0","l","NA","right alt","space","space","l","NA","759","NA","22406","12969","22086","759","NA","2","legacy","1024","2","48000","-16","experiment","1","odd","present","58912","58912","NA","123322","1354","58896","136797","137313","1390","23820","36808","137314","138075","NA","136782","Fraction component detection task","47","42386","52","yes","1280"
"90.5660377358","90.5660377358","813.716981132","813.716981132","#808080","no","legacy","legacy","legacy","0","uniform","1","undefined","undefined","undefined","1","l","0","0","0","52","0","0","52","52","0","0","0","52","52","0","52","Mon Apr 30 11:03:54 2018","#757575","low","8","The main experiment item","yes","","exp2.osexp","/Users/tom/github/sft-fraction/exp2","Zapfino","mono","no","mono","no","24","no","white","no","yes","800","legacy","52","52","0","/Users/tom/github/sft-fraction/exp2/data/subject-1a.csv","legacy","#000000","high","3","Jazzy James","3.1.9","0","l","NA","right alt","space","space","l","NA","741","NA","22406","12969","22086","741","NA","2","legacy","1024","2","48000","-16","experiment","1","odd","present","58912","58912","NA","123322","1354","58896","138155","138676","1390","23820","36808","138676","139419","NA","138139","Fraction component detection task","48","43127","53","yes","1280"
"90.7407407407","90.7407407407","810.240740741","810.240740741","#808080","no","legacy","legacy","legacy","0","uniform","1","undefined","undefined","undefined","1","l","0","0","0","53","0","0","53","53","0","0","0","53","53","0","53","Mon Apr 30 11:03:54 2018","#757575","low","8","The main experiment item","yes","","exp2.osexp","/Users/tom/github/sft-fraction/exp2","Zapfino","mono","no","mono","no","24","no","white","no","yes","800","legacy","53","53","0","/Users/tom/github/sft-fraction/exp2/data/subject-1a.csv","legacy","#000000","high","7","Jazzy James","3.1.9","0","l","NA","right alt","space","space","l","NA","626","NA","22406","12969","22086","626","NA","2","legacy","1024","2","48000","-16","experiment","1","odd","present","58912","58912","NA","123322","1354","58896","139500","140016","1390","23820","36808","140016","140644","NA","139485","Fraction component detection task","49","43753","54","yes","1280"
"90.9090909091","90.9090909091","809.072727273","809.072727273","#808080","no","legacy","legacy","legacy","0","uniform","1","undefined","undefined","undefined","1","a","0","0","0","54","0","0","54","54","0","0","0","54","54","0","54","Mon Apr 30 11:03:54 2018","#757575","low","4","The main experiment item","yes","","exp2.osexp","/Users/tom/github/sft-fraction/exp2","Zapfino","mono","no","mono","no","24","no","white","no","yes","800","legacy","54","54","0","/Users/tom/github/sft-fraction/exp2/data/subject-1a.csv","legacy","#000000","high","2","Jazzy James","3.1.9","0","a","NA","right alt","space","space","a","NA","746","NA","22406","12969","22086","746","NA","2","legacy","1024","2","48000","-16","experiment","1","odd","absent","58912","58912","NA","123322","1354","58896","140731","141247","1390","23820","36808","141248","141996","NA","140714","Fraction component detection task","50","44499","55","yes","1280"
"91.0714285714","91.0714285714","815.232142857","815.232142857","#808080","no","legacy","legacy","legacy","0","uniform","1","undefined","undefined","undefined","1","a","0","0","0","55","0","0","55","55","0","0","0","55","55","0","55","Mon Apr 30 11:03:54 2018","#000000","high","3","The main experiment item","yes","","exp2.osexp","/Users/tom/github/sft-fraction/exp2","mono","mono","no","mono","no","24","no","white","no","yes","800","legacy","55","55","0","/Users/tom/github/sft-fraction/exp2/data/subject-1a.csv","legacy","#000000","high","4","Jazzy James","3.1.9","0","a","NA","right alt","space","space","a","NA","1154","NA","22406","12969","22086","1154","NA","2","legacy","1024","2","48000","-16","experiment","1","odd","absent","58912","58912","NA","123322","1354","58896","142075","142592","1390","23820","36808","142592","143748","NA","142060","Fraction component detection task","51","45653","56","yes","1280"
"91.2280701754","91.2280701754","816.245614035","816.245614035","#808080","no","legacy","legacy","legacy","0","uniform","1","undefined","undefined","undefined","1","l","0","0","0","56","0","0","56","56","0","0","0","56","56","0","56","Mon Apr 30 11:03:54 2018","#757575","low","7","The main experiment item","yes","","exp2.osexp","/Users/tom/github/sft-fraction/exp2","Zapfino","Zapfino","no","mono","no","24","no","white","no","yes","800","legacy","56","56","0","/Users/tom/github/sft-fraction/exp2/data/subject-1a.csv","legacy","#757575","low","2","Jazzy James","3.1.9","0","l","NA","right alt","space","space","l","NA","873","NA","22406","12969","22086","873","NA","2","legacy","1024","2","48000","-16","experiment","1","odd","present","58912","58912","NA","123322","1354","58896","143827","144344","1390","23820","36808","144344","145219","NA","143811","Fraction component detection task","52","46526","57","yes","1280"
"91.3793103448","91.3793103448","821.672413793","821.672413793","#808080","no","legacy","legacy","legacy","0","uniform","1","undefined","undefined","undefined","1","a","0","0","0","57","0","0","57","57","0","0","0","57","57","0","57","Mon Apr 30 11:03:54 2018","#757575","low","2","The main experiment item","yes","","exp2.osexp","/Users/tom/github/sft-fraction/exp2","Zapfino","Zapfino","no","mono","no","24","no","white","no","yes","800","legacy","57","57","0","/Users/tom/github/sft-fraction/exp2/data/subject-1a.csv","legacy","#757575","low","3","Jazzy James","3.1.9","0","a","NA","right alt","space","space","a","NA","1131","NA","22406","12969","22086","1131","NA","2","legacy","1024","2","48000","-16","experiment","1","odd","absent","58912","58912","NA","123322","1354","58896","145306","145823","1390","23820","36808","145823","146957","NA","145289","Fraction component detection task","53","47657","58","yes","1280"
"91.5254237288","91.5254237288","823.084745763","823.084745763","#808080","no","legacy","legacy","legacy","0","uniform","1","undefined","undefined","undefined","1","l","0","0","0","58","0","0","58","58","0","0","0","58","58","0","58","Mon Apr 30 11:03:54 2018","#000000","high","4","The main experiment item","yes","","exp2.osexp","/Users/tom/github/sft-fraction/exp2","mono","Zapfino","no","mono","no","24","no","white","no","yes","800","legacy","58","58","0","/Users/tom/github/sft-fraction/exp2/data/subject-1a.csv","legacy","#757575","low","6","Jazzy James","3.1.9","0","l","NA","right alt","space","space","l","NA","905","NA","22406","12969","22086","905","NA","2","legacy","1024","2","48000","-16","experiment","1","odd","present","58912","58912","NA","123322","1354","58896","147042","147560","1390","23820","36808","147560","148467","NA","147025","Fraction component detection task","54","48562","59","yes","1280"
"91.6666666667","91.6666666667","827.3","827.3","#808080","no","legacy","legacy","legacy","0","uniform","1","undefined","undefined","undefined","1","l","0","0","0","59","0","0","59","59","0","0","0","59","59","0","59","Mon Apr 30 11:03:54 2018","#000000","high","4","The main experiment item","yes","","exp2.osexp","/Users/tom/github/sft-fraction/exp2","mono","Zapfino","no","mono","no","24","no","white","no","yes","800","legacy","59","59","0","/Users/tom/github/sft-fraction/exp2/data/subject-1a.csv","legacy","#757575","low","7","Jazzy James","3.1.9","0","l","NA","right alt","space","space","l","NA","1076","NA","22406","12969","22086","1076","NA","2","legacy","1024","2","48000","-16","experiment","1","odd","present","58912","58912","NA","123322","1354","58896","148552","149068","1390","23820","36808","149069","150148","NA","148537","Fraction component detection task","55","49638","60","yes","1280"
"91.8032786885","91.8032786885","828.475409836","828.475409836","#808080","no","legacy","legacy","legacy","0","uniform","1","undefined","undefined","undefined","1","l","0","0","0","60","0","0","60","60","0","0","0","60","60","0","60","Mon Apr 30 11:03:54 2018","#000000","high","7","The main experiment item","yes","","exp2.osexp","/Users/tom/github/sft-fraction/exp2","mono","Zapfino","no","mono","no","24","no","white","no","yes","800","legacy","60","60","0","/Users/tom/github/sft-fraction/exp2/data/subject-1a.csv","legacy","#757575","low","3","Jazzy James","3.1.9","0","l","NA","right alt","space","space","l","NA","899","NA","22406","12969","22086","899","NA","2","legacy","1024","2","48000","-16","experiment","1","odd","present","58912","58912","NA","123322","1354","58896","150234","150751","1390","23820","36808","150751","151653","NA","150213","Fraction component detection task","56","50537","61","yes","1280"
"91.935483871","91.935483871","827.032258065","827.032258065","#808080","no","legacy","legacy","legacy","0","uniform","1","undefined","undefined","undefined","1","l","0","0","0","61","0","0","61","61","0","0","0","61","61","0","61","Mon Apr 30 11:03:54 2018","#757575","low","4","The main experiment item","yes","","exp2.osexp","/Users/tom/github/sft-fraction/exp2","Zapfino","mono","no","mono","no","24","no","white","no","yes","800","legacy","61","61","0","/Users/tom/github/sft-fraction/exp2/data/subject-1a.csv","legacy","#000000","high","7","Jazzy James","3.1.9","0","l","NA","right alt","space","space","l","NA","739","NA","22406","12969","22086","739","NA","2","legacy","1024","2","48000","-16","experiment","1","odd","present","58912","58912","NA","123322","1354","58896","151737","152256","1390","23820","36808","152256","152997","NA","151716","Fraction component detection task","57","51276","62","yes","1280"
"92.0634920635","92.0634920635","824.301587302","824.301587302","#808080","no","legacy","legacy","legacy","0","uniform","1","undefined","undefined","undefined","1","l","0","0","0","62","0","0","62","62","0","0","0","62","62","0","62","Mon Apr 30 11:03:54 2018","#000000","high","4","The main experiment item","yes","","exp2.osexp","/Users/tom/github/sft-fraction/exp2","mono","mono","no","mono","no","24","no","white","no","yes","800","legacy","62","62","0","/Users/tom/github/sft-fraction/exp2/data/subject-1a.csv","legacy","#000000","high","6","Jazzy James","3.1.9","0","l","NA","right alt","space","space","l","NA","655","NA","22406","12969","22086","655","NA","2","legacy","1024","2","48000","-16","experiment","1","odd","present","58912","58912","NA","123322","1354","58896","153081","153603","1390","23820","36808","153603","154260","NA","153065","Fraction component detection task","58","51931","63","yes","1280"
"92.1875","92.1875","821.5625","821.5625","#808080","no","legacy","legacy","legacy","0","uniform","1","undefined","undefined","undefined","1","l","0","0","0","63","0","0","63","63","0","0","0","63","63","0","63","Mon Apr 30 11:03:54 2018","#000000","high","2","The main experiment item","yes","","exp2.osexp","/Users/tom/github/sft-fraction/exp2","mono","Zapfino","no","mono","no","24","no","white","no","yes","800","legacy","63","63","0","/Users/tom/github/sft-fraction/exp2/data/subject-1a.csv","legacy","#757575","low","8","Jazzy James","3.1.9","0","l","NA","right alt","space","space","l","NA","649","NA","22406","12969","22086","649","NA","2","legacy","1024","2","48000","-16","experiment","1","odd","present","58912","58912","NA","123322","1354","58896","154340","154857","1390","23820","36808","154857","155508","NA","154325","Fraction component detection task","59","52580","64","yes","1280"
"92.3076923077","92.3076923077","818.184615385","818.184615385","#808080","no","legacy","legacy","legacy","0","uniform","1","undefined","undefined","undefined","1","l","0","0","0","64","0","0","64","64","0","0","0","64","64","0","64","Mon Apr 30 11:03:54 2018","#757575","low","6","The main experiment item","yes","","exp2.osexp","/Users/tom/github/sft-fraction/exp2","Zapfino","mono","no","mono","no","24","no","white","no","yes","800","legacy","64","64","0","/Users/tom/github/sft-fraction/exp2/data/subject-1a.csv","legacy","#000000","high","8","Jazzy James","3.1.9","0","l","NA","right alt","space","space","l","NA","602","NA","22406","12969","22086","602","NA","2","legacy","1024","2","48000","-16","experiment","1","odd","present","58912","58912","NA","123322","1354","58896","155594","156113","1390","23820","36808","156113","156717","NA","155579","Fraction component detection task","60","53182","65","yes","1280"
"92.4242424242","92.4242424242","816.424242424","816.424242424","#808080","no","legacy","legacy","legacy","0","uniform","1","undefined","undefined","undefined","1","l","0","0","0","65","0","0","65","65","0","0","0","65","65","0","65","Mon Apr 30 11:03:54 2018","#757575","low","8","The main experiment item","yes","","exp2.osexp","/Users/tom/github/sft-fraction/exp2","Zapfino","mono","no","mono","no","24","no","white","no","yes","800","legacy","65","65","0","/Users/tom/github/sft-fraction/exp2/data/subject-1a.csv","legacy","#000000","high","2","Jazzy James","3.1.9","0","l","NA","right alt","space","space","l","NA","702","NA","22406","12969","22086","702","NA","2","legacy","1024","2","48000","-16","experiment","1","odd","present","58912","58912","NA","123322","1354","58896","156799","157316","1390","23820","36808","157316","158020","NA","156780","Fraction component detection task","61","53884","66","yes","1280"
"92.5373134328","92.5373134328","815.208955224","815.208955224","#808080","no","legacy","legacy","legacy","0","uniform","1","undefined","undefined","undefined","1","l","0","0","0","66","0","0","66","66","0","0","0","66","66","0","66","Mon Apr 30 11:03:54 2018","#757575","low","7","The main experiment item","yes","","exp2.osexp","/Users/tom/github/sft-fraction/exp2","Zapfino","mono","no","mono","no","24","no","white","no","yes","800","legacy","66","66","0","/Users/tom/github/sft-fraction/exp2/data/subject-1a.csv","legacy","#000000","high","3","Jazzy James","3.1.9","0","l","NA","right alt","space","space","l","NA","735","NA","22406","12969","22086","735","NA","2","legacy","1024","2","48000","-16","experiment","1","odd","present","58912","58912","NA","123322","1354","58896","158110","158627","1390","23820","36808","158627","159364","NA","158090","Fraction component detection task","62","54619","67","yes","1280"
"92.6470588235","92.6470588235","815.029411765","815.029411765","#808080","no","legacy","legacy","legacy","0","uniform","1","undefined","undefined","undefined","1","l","0","0","0","67","0","0","67","67","0","0","0","67","67","0","67","Mon Apr 30 11:03:54 2018","#000000","high","7","The main experiment item","yes","","exp2.osexp","/Users/tom/github/sft-fraction/exp2","mono","mono","no","mono","no","24","no","white","no","yes","800","legacy","67","67","0","/Users/tom/github/sft-fraction/exp2/data/subject-1a.csv","legacy","#000000","high","4","Jazzy James","3.1.9","0","l","NA","right alt","space","space","l","NA","803","NA","22406","12969","22086","803","NA","2","legacy","1024","2","48000","-16","experiment","1","odd","present","58912","58912","NA","123322","1354","58896","159443","159960","1390","23820","36808","159960","160765","NA","159428","Fraction component detection task","63","55422","68","yes","1280"
"91.3043478261","91.3043478261","813.710144928","813.710144928","#808080","no","legacy","legacy","legacy","0","uniform","0","undefined","undefined","undefined","0","a","0","0","0","68","0","0","68","68","0","0","0","68","68","0","68","Mon Apr 30 11:03:54 2018","#757575","low","3","The main experiment item","yes","","exp2.osexp","/Users/tom/github/sft-fraction/exp2","Zapfino","Zapfino","no","mono","no","24","no","white","no","yes","800","legacy","68","68","0","/Users/tom/github/sft-fraction/exp2/data/subject-1a.csv","legacy","#757575","low","2","Jazzy James","3.1.9","0","l","NA","right alt","space","space","l","NA","724","NA","22406","12969","22086","724","NA","2","legacy","1024","2","48000","-16","experiment","1","odd","absent","58912","58912","NA","123322","1354","58896","160850","161366","1390","23820","36808","161366","162093","NA","160829","Fraction component detection task","63","56146","69","yes","1280"
"91.4285714286","91.4285714286","816.928571429","816.928571429","#808080","no","legacy","legacy","legacy","0","uniform","1","undefined","undefined","undefined","1","a","0","0","0","69","0","0","69","69","0","0","0","69","69","0","69","Mon Apr 30 11:03:54 2018","#757575","low","3","The main experiment item","yes","","exp2.osexp","/Users/tom/github/sft-fraction/exp2","Zapfino","Zapfino","no","mono","no","24","no","white","no","yes","800","legacy","69","69","0","/Users/tom/github/sft-fraction/exp2/data/subject-1a.csv","legacy","#757575","low","3","Jazzy James","3.1.9","0","a","NA","right alt","space","space","a","NA","1039","NA","22406","12969","22086","1039","NA","2","legacy","1024","2","48000","-16","experiment","1","odd","absent","58912","58912","NA","162112","1354","58896","163198","163716","1390","23820","36808","163716","164758","NA","163178","Fraction component detection task","64","57185","70","yes","1280"
"91.5492957746","91.5492957746","827.535211268","827.535211268","#808080","no","legacy","legacy","legacy","0","uniform","1","undefined","undefined","undefined","1","a","0","0","0","70","0","0","70","70","0","0","0","70","70","0","70","Mon Apr 30 11:03:54 2018","#757575","low","3","The main experiment item","yes","","exp2.osexp","/Users/tom/github/sft-fraction/exp2","Zapfino","Zapfino","no","mono","no","24","no","white","no","yes","800","legacy","70","70","0","/Users/tom/github/sft-fraction/exp2/data/subject-1a.csv","legacy","#757575","low","4","Jazzy James","3.1.9","0","a","NA","right alt","space","space","a","NA","1570","NA","22406","12969","22086","1570","NA","2","legacy","1024","2","48000","-16","experiment","1","odd","absent","58912","58912","NA","162112","1354","58896","164844","165361","1390","23820","36808","165361","166934","NA","164822","Fraction component detection task","65","58755","71","yes","1280"
"91.6666666667","91.6666666667","825.263888889","825.263888889","#808080","no","legacy","legacy","legacy","0","uniform","1","undefined","undefined","undefined","1","l","0","0","0","71","0","0","71","71","0","0","0","71","71","0","71","Mon Apr 30 11:03:54 2018","#000000","high","6","The main experiment item","yes","","exp2.osexp","/Users/tom/github/sft-fraction/exp2","mono","mono","no","mono","no","24","no","white","no","yes","800","legacy","71","71","0","/Users/tom/github/sft-fraction/exp2/data/subject-1a.csv","legacy","#000000","high","2","Jazzy James","3.1.9","0","l","NA","right alt","space","space","l","NA","664","NA","22406","12969","22086","664","NA","2","legacy","1024","2","48000","-16","experiment","1","odd","present","58912","58912","NA","162112","1354","58896","167013","167529","1390","23820","36808","167530","168197","NA","166998","Fraction component detection task","66","59419","72","yes","1280"
"91.7808219178","91.7808219178","822","822","#808080","no","legacy","legacy","legacy","0","uniform","1","undefined","undefined","undefined","1","l","0","0","0","72","0","0","72","72","0","0","0","72","72","0","72","Mon Apr 30 11:03:54 2018","#000000","high","6","The main experiment item","yes","","exp2.osexp","/Users/tom/github/sft-fraction/exp2","mono","mono","no","mono","no","24","no","white","no","yes","800","legacy","72","72","0","/Users/tom/github/sft-fraction/exp2/data/subject-1a.csv","legacy","#000000","high","6","Jazzy James","3.1.9","0","l","NA","right alt","space","space","l","NA","587","NA","22406","12969","22086","587","NA","2","legacy","1024","2","48000","-16","experiment","1","odd","present","58912","58912","NA","162112","1354","58896","168278","168799","1390","23820","36808","168799","169389","NA","168262","Fraction component detection task","67","60006","73","yes","1280"
"91.8918918919","91.8918918919","819.797297297","819.797297297","#808080","no","legacy","legacy","legacy","0","uniform","1","undefined","undefined","undefined","1","l","0","0","0","73","0","0","73","73","0","0","0","73","73","0","73","Mon Apr 30 11:03:54 2018","#757575","low","7","The main experiment item","yes","","exp2.osexp","/Users/tom/github/sft-fraction/exp2","Zapfino","mono","no","mono","no","24","no","white","no","yes","800","legacy","73","73","0","/Users/tom/github/sft-fraction/exp2/data/subject-1a.csv","legacy","#000000","high","6","Jazzy James","3.1.9","0","l","NA","right alt","space","space","l","NA","659","NA","22406","12969","22086","659","NA","2","legacy","1024","2","48000","-16","experiment","1","odd","present","58912","58912","NA","162112","1354","58896","169474","169992","1390","23820","36808","169992","170655","NA","169454","Fraction component detection task","68","60665","74","yes","1280"
"92","92","816.466666667","816.466666667","#808080","no","legacy","legacy","legacy","0","uniform","1","undefined","undefined","undefined","1","a","0","0","0","74","0","0","74","74","0","0","0","74","74","0","74","Mon Apr 30 11:03:54 2018","#000000","high","2","The main experiment item","yes","","exp2.osexp","/Users/tom/github/sft-fraction/exp2","mono","Zapfino","no","mono","no","24","no","white","no","yes","800","legacy","74","74","0","/Users/tom/github/sft-fraction/exp2/data/subject-1a.csv","legacy","#757575","low","2","Jazzy James","3.1.9","0","a","NA","right alt","space","space","a","NA","570","NA","22406","12969","22086","570","NA","2","legacy","1024","2","48000","-16","experiment","1","odd","absent","58912","58912","NA","162112","1354","58896","170748","171265","1390","23820","36808","171265","171838","NA","170729","Fraction component detection task","69","61235","75","yes","1280"
"92.1052631579","92.1052631579","814.460526316","814.460526316","#808080","no","legacy","legacy","legacy","0","uniform","1","undefined","undefined","undefined","1","a","0","0","0","75","0","0","75","75","0","0","0","75","75","0","75","Mon Apr 30 11:03:54 2018","#000000","high","3","The main experiment item","yes","","exp2.osexp","/Users/tom/github/sft-fraction/exp2","mono","Zapfino","no","mono","no","24","no","white","no","yes","800","legacy","75","75","0","/Users/tom/github/sft-fraction/exp2/data/subject-1a.csv","legacy","#757575","low","3","Jazzy James","3.1.9","0","a","NA","right alt","space","space","a","NA","664","NA","22406","12969","22086","664","NA","2","legacy","1024","2","48000","-16","experiment","1","odd","absent","58912","58912","NA","162112","1354","58896","171919","172435","1390","23820","36808","172435","173101","NA","171903","Fraction component detection task","70","61899","76","yes","1280"
"92.2077922078","92.2077922078","811.506493506","811.506493506","#808080","no","legacy","legacy","legacy","0","uniform","1","undefined","undefined","undefined","1","a","0","0","0","76","0","0","76","76","0","0","0","76","76","0","76","Mon Apr 30 11:03:54 2018","#757575","low","4","The main experiment item","yes","","exp2.osexp","/Users/tom/github/sft-fraction/exp2","Zapfino","Zapfino","no","mono","no","24","no","white","no","yes","800","legacy","76","76","0","/Users/tom/github/sft-fraction/exp2/data/subject-1a.csv","legacy","#757575","low","4","Jazzy James","3.1.9","0","a","NA","right alt","space","space","a","NA","587","NA","22406","12969","22086","587","NA","2","legacy","1024","2","48000","-16","experiment","1","odd","absent","58912","58912","NA","162112","1354","58896","173179","173696","1390","23820","36808","173696","174285","NA","173164","Fraction component detection task","71","62486","77","yes","1280"
"92.3076923077","92.3076923077","810","810","#808080","no","legacy","legacy","legacy","0","uniform","1","undefined","undefined","undefined","1","a","0","0","0","77","0","0","77","77","0","0","0","77","77","0","77","Mon Apr 30 11:03:54 2018","#757575","low","4","The main experiment item","yes","","exp2.osexp","/Users/tom/github/sft-fraction/exp2","Zapfino","mono","no","mono","no","24","no","white","no","yes","800","legacy","77","77","0","/Users/tom/github/sft-fraction/exp2/data/subject-1a.csv","legacy","#000000","high","2","Jazzy James","3.1.9","0","a","NA","right alt","space","space","a","NA","694","NA","22406","12969","22086","694","NA","2","legacy","1024","2","48000","-16","experiment","1","odd","absent","58912","58912","NA","162112","1354","58896","174372","174893","1390","23820","36808","174893","175589","NA","174356","Fraction component detection task","72","63180","78","yes","1280"
"92.4050632911","92.4050632911","808.696202532","808.696202532","#808080","no","legacy","legacy","legacy","0","uniform","1","undefined","undefined","undefined","1","l","0","0","0","78","0","0","78","78","0","0","0","78","78","0","78","Mon Apr 30 11:03:54 2018","#000000","high","8","The main experiment item","yes","","exp2.osexp","/Users/tom/github/sft-fraction/exp2","mono","Zapfino","no","mono","no","24","no","white","no","yes","800","legacy","78","78","0","/Users/tom/github/sft-fraction/exp2/data/subject-1a.csv","legacy","#757575","low","4","Jazzy James","3.1.9","0","l","NA","right alt","space","space","l","NA","707","NA","22406","12969","22086","707","NA","2","legacy","1024","2","48000","-16","experiment","1","odd","present","58912","58912","NA","162112","1354","58896","175676","176192","1390","23820","36808","176193","176903","NA","175658","Fraction component detection task","73","63887","79","yes","1280"
"92.5","92.5","807.8625","807.8625","#808080","no","legacy","legacy","legacy","0","uniform","1","undefined","undefined","undefined","1","a","0","0","0","79","0","0","79","79","0","0","0","79","79","0","79","Mon Apr 30 11:03:54 2018","#000000","high","2","The main experiment item","yes","","exp2.osexp","/Users/tom/github/sft-fraction/exp2","mono","mono","no","mono","no","24","no","white","no","yes","800","legacy","79","79","0","/Users/tom/github/sft-fraction/exp2/data/subject-1a.csv","legacy","#000000","high","3","Jazzy James","3.1.9","0","a","NA","right alt","space","space","a","NA","742","NA","22406","12969","22086","742","NA","2","legacy","1024","2","48000","-16","experiment","1","odd","absent","58912","58912","NA","162112","1354","58896","176992","177509","1390","23820","36808","177509","178253","NA","176969","Fraction component detection task","74","64629","80","yes","1280"
"92.5925925926","92.5925925926","809.259259259","809.259259259","#808080","no","legacy","legacy","legacy","0","uniform","1","undefined","undefined","undefined","1","l","0","0","0","80","0","0","80","80","0","0","0","80","80","0","80","Mon Apr 30 11:03:54 2018","#757575","low","6","The main experiment item","yes","","exp2.osexp","/Users/tom/github/sft-fraction/exp2","Zapfino","Zapfino","no","mono","no","24","no","white","no","yes","800","legacy","80","80","0","/Users/tom/github/sft-fraction/exp2/data/subject-1a.csv","legacy","#757575","low","4","Jazzy James","3.1.9","0","l","NA","right alt","space","space","l","NA","921","NA","22406","12969","22086","921","NA","2","legacy","1024","2","48000","-16","experiment","1","odd","present","58912","58912","NA","162112","1354","58896","178342","178859","1390","23820","36808","178859","179782","NA","178321","Fraction component detection task","75","65550","81","yes","1280"
"92.6829268293","92.6829268293","806.451219512","806.451219512","#808080","no","legacy","legacy","legacy","0","uniform","1","undefined","undefined","undefined","1","a","0","0","0","81","0","0","81","81","0","0","0","81","81","0","81","Mon Apr 30 11:03:54 2018","#000000","high","4","The main experiment item","yes","","exp2.osexp","/Users/tom/github/sft-fraction/exp2","mono","mono","no","mono","no","24","no","white","no","yes","800","legacy","81","81","0","/Users/tom/github/sft-fraction/exp2/data/subject-1a.csv","legacy","#000000","high","4","Jazzy James","3.1.9","0","a","NA","right alt","space","space","a","NA","579","NA","22406","12969","22086","579","NA","2","legacy","1024","2","48000","-16","experiment","1","odd","absent","58912","58912","NA","162112","1354","58896","179861","180377","1390","23820","36808","180377","180958","NA","179846","Fraction component detection task","76","66129","82","yes","1280"
"92.7710843373","92.7710843373","804.397590361","804.397590361","#808080","no","legacy","legacy","legacy","0","uniform","1","undefined","undefined","undefined","1","l","0","0","0","82","0","0","82","82","0","0","0","82","82","0","82","Mon Apr 30 11:03:54 2018","#757575","low","7","The main experiment item","yes","","exp2.osexp","/Users/tom/github/sft-fraction/exp2","Zapfino","Zapfino","no","mono","no","24","no","white","no","yes","800","legacy","82","82","0","/Users/tom/github/sft-fraction/exp2/data/subject-1a.csv","legacy","#757575","low","6","Jazzy James","3.1.9","0","l","NA","right alt","space","space","l","NA","636","NA","22406","12969","22086","636","NA","2","legacy","1024","2","48000","-16","experiment","1","odd","present","58912","58912","NA","162112","1354","58896","181046","181567","1390","23820","36808","181567","182205","NA","181030","Fraction component detection task","77","66765","83","yes","1280"
"92.8571428571","92.8571428571","805.047619048","805.047619048","#808080","no","legacy","legacy","legacy","0","uniform","1","undefined","undefined","undefined","1","a","0","0","0","83","0","0","83","83","0","0","0","83","83","0","83","Mon Apr 30 11:03:54 2018","#757575","low","2","The main experiment item","yes","","exp2.osexp","/Users/tom/github/sft-fraction/exp2","Zapfino","mono","no","mono","no","24","no","white","no","yes","800","legacy","83","83","0","/Users/tom/github/sft-fraction/exp2/data/subject-1a.csv","legacy","#000000","high","3","Jazzy James","3.1.9","0","a","NA","right alt","space","space","a","NA","859","NA","22406","12969","22086","859","NA","2","legacy","1024","2","48000","-16","experiment","1","odd","absent","58912","58912","NA","162112","1354","58896","182292","182809","1390","23820","36808","182809","183671","NA","182276","Fraction component detection task","78","67624","84","yes","1280"
"92.9411764706","92.9411764706","804.494117647","804.494117647","#808080","no","legacy","legacy","legacy","0","uniform","1","undefined","undefined","undefined","1","l","0","0","0","84","0","0","84","84","0","0","0","84","84","0","84","Mon Apr 30 11:03:54 2018","#757575","low","7","The main experiment item","yes","","exp2.osexp","/Users/tom/github/sft-fraction/exp2","Zapfino","Zapfino","no","mono","no","24","no","white","no","yes","800","legacy","84","84","0","/Users/tom/github/sft-fraction/exp2/data/subject-1a.csv","legacy","#757575","low","7","Jazzy James","3.1.9","0","l","NA","right alt","space","space","l","NA","758","NA","22406","12969","22086","758","NA","2","legacy","1024","2","48000","-16","experiment","1","odd","present","58912","58912","NA","162112","1354","58896","183760","184277","1390","23820","36808","184277","185038","NA","183741","Fraction component detection task","79","68382","85","yes","1280"
"93.023255814","93.023255814","803.930232558","803.930232558","#808080","no","legacy","legacy","legacy","0","uniform","1","undefined","undefined","undefined","1","a","0","0","0","85","0","0","85","85","0","0","0","85","85","0","85","Mon Apr 30 11:03:54 2018","#757575","low","4","The main experiment item","yes","","exp2.osexp","/Users/tom/github/sft-fraction/exp2","Zapfino","Zapfino","no","mono","no","24","no","white","no","yes","800","legacy","85","85","0","/Users/tom/github/sft-fraction/exp2/data/subject-1a.csv","legacy","#757575","low","4","Jazzy James","3.1.9","0","a","NA","right alt","space","space","a","NA","756","NA","22406","12969","22086","756","NA","2","legacy","1024","2","48000","-16","experiment","1","odd","absent","58912","58912","NA","162112","1354","58896","185129","185646","1390","23820","36808","185647","186406","NA","185108","Fraction component detection task","80","69138","86","yes","1280"
"93.1034482759","93.1034482759","811.022988506","811.022988506","#808080","no","legacy","legacy","legacy","0","uniform","1","undefined","undefined","undefined","1","l","0","0","0","86","0","0","86","86","0","0","0","86","86","0","86","Mon Apr 30 11:03:54 2018","#000000","high","8","The main experiment item","yes","","exp2.osexp","/Users/tom/github/sft-fraction/exp2","mono","Zapfino","no","mono","no","24","no","white","no","yes","800","legacy","86","86","0","/Users/tom/github/sft-fraction/exp2/data/subject-1a.csv","legacy","#757575","low","3","Jazzy James","3.1.9","0","l","NA","right alt","space","space","l","NA","1421","NA","22406","12969","22086","1421","NA","2","legacy","1024","2","48000","-16","experiment","1","odd","present","58912","58912","NA","162112","1354","58896","186490","187006","1390","23820","36808","187006","188430","NA","186469","Fraction component detection task","81","70559","87","yes","1280"
"93.1818181818","93.1818181818","809.477272727","809.477272727","#808080","no","legacy","legacy","legacy","0","uniform","1","undefined","undefined","undefined","1","a","0","0","0","87","0","0","87","87","0","0","0","87","87","0","87","Mon Apr 30 11:03:54 2018","#757575","low","2","The main experiment item","yes","","exp2.osexp","/Users/tom/github/sft-fraction/exp2","Zapfino","mono","no","mono","no","24","no","white","no","yes","800","legacy","87","87","0","/Users/tom/github/sft-fraction/exp2/data/subject-1a.csv","legacy","#000000","high","2","Jazzy James","3.1.9","0","a","NA","right alt","space","space","a","NA","675","NA","22406","12969","22086","675","NA","2","legacy","1024","2","48000","-16","experiment","1","odd","absent","58912","58912","NA","162112","1354","58896","188514","189033","1390","23820","36808","189033","189711","NA","188498","Fraction component detection task","82","71234","88","yes","1280"
"93.2584269663","93.2584269663","809.539325843","809.539325843","#808080","no","legacy","legacy","legacy","0","uniform","1","undefined","undefined","undefined","1","l","0","0","0","88","0","0","88","88","0","0","0","88","88","0","88","Mon Apr 30 11:03:54 2018","#757575","low","4","The main experiment item","yes","","exp2.osexp","/Users/tom/github/sft-fraction/exp2","Zapfino","Zapfino","no","mono","no","24","no","white","no","yes","800","legacy","88","88","0","/Users/tom/github/sft-fraction/exp2/data/subject-1a.csv","legacy","#757575","low","6","Jazzy James","3.1.9","0","l","NA","right alt","space","space","l","NA","815","NA","22406","12969","22086","815","NA","2","legacy","1024","2","48000","-16","experiment","1","odd","present","58912","58912","NA","162112","1354","58896","189791","190308","1390","23820","36808","190308","191126","NA","189775","Fraction component detection task","83","72049","89","yes","1280"
"93.3333333333","93.3333333333","808.377777778","808.377777778","#808080","no","legacy","legacy","legacy","0","uniform","1","undefined","undefined","undefined","1","a","0","0","0","89","0","0","89","89","0","0","0","89","89","0","89","Mon Apr 30 11:03:54 2018","#000000","high","2","The main experiment item","yes","","exp2.osexp","/Users/tom/github/sft-fraction/exp2","mono","Zapfino","no","mono","no","24","no","white","no","yes","800","legacy","89","89","0","/Users/tom/github/sft-fraction/exp2/data/subject-1a.csv","legacy","#757575","low","2","Jazzy James","3.1.9","0","a","NA","right alt","space","space","a","NA","705","NA","22406","12969","22086","705","NA","2","legacy","1024","2","48000","-16","experiment","1","odd","absent","58912","58912","NA","162112","1354","58896","191209","191730","1390","23820","36808","191730","192438","NA","191189","Fraction component detection task","84","72754","90","yes","1280"
"93.4065934066","93.4065934066","806.846153846","806.846153846","#808080","no","legacy","legacy","legacy","0","uniform","1","undefined","undefined","undefined","1","l","0","0","0","90","0","0","90","90","0","0","0","90","90","0","90","Mon Apr 30 11:03:54 2018","#757575","low","8","The main experiment item","yes","","exp2.osexp","/Users/tom/github/sft-fraction/exp2","Zapfino","Zapfino","no","mono","no","24","no","white","no","yes","800","legacy","90","90","0","/Users/tom/github/sft-fraction/exp2/data/subject-1a.csv","legacy","#757575","low","6","Jazzy James","3.1.9","0","l","NA","right alt","space","space","l","NA","669","NA","22406","12969","22086","669","NA","2","legacy","1024","2","48000","-16","experiment","1","odd","present","58912","58912","NA","162112","1354","58896","192528","193048","1390","23820","36808","193048","193719","NA","192509","Fraction component detection task","85","73423","91","yes","1280"
"93.4782608696","93.4782608696","805.47826087","805.47826087","#808080","no","legacy","legacy","legacy","0","uniform","1","undefined","undefined","undefined","1","l","0","0","0","91","0","0","91","91","0","0","0","91","91","0","91","Mon Apr 30 11:03:54 2018","#000000","high","2","The main experiment item","yes","","exp2.osexp","/Users/tom/github/sft-fraction/exp2","mono","mono","no","mono","no","24","no","white","no","yes","800","legacy","91","91","0","/Users/tom/github/sft-fraction/exp2/data/subject-1a.csv","legacy","#000000","high","7","Jazzy James","3.1.9","0","l","NA","right alt","space","space","l","NA","681","NA","22406","12969","22086","681","NA","2","legacy","1024","2","48000","-16","experiment","1","odd","present","58912","58912","NA","162112","1354","58896","193799","194316","1390","23820","36808","194316","194999","NA","193784","Fraction component detection task","86","74104","92","yes","1280"
"93.5483870968","93.5483870968","806.333333333","806.333333333","#808080","no","legacy","legacy","legacy","0","uniform","1","undefined","undefined","undefined","1","a","0","0","0","92","0","0","92","92","0","0","0","92","92","0","92","Mon Apr 30 11:03:54 2018","#000000","high","3","The main experiment item","yes","","exp2.osexp","/Users/tom/github/sft-fraction/exp2","mono","mono","no","mono","no","24","no","white","no","yes","800","legacy","92","92","0","/Users/tom/github/sft-fraction/exp2/data/subject-1a.csv","legacy","#000000","high","2","Jazzy James","3.1.9","0","a","NA","right alt","space","space","a","NA","885","NA","22406","12969","22086","885","NA","2","legacy","1024","2","48000","-16","experiment","1","odd","absent","58912","58912","NA","162112","1354","58896","195083","195599","1390","23820","36808","195599","196486","NA","195062","Fraction component detection task","87","74989","93","yes","1280"
"93.6170212766","93.6170212766","808.936170213","808.936170213","#808080","no","legacy","legacy","legacy","0","uniform","1","undefined","undefined","undefined","1","a","0","0","0","93","0","0","93","93","0","0","0","93","93","0","93","Mon Apr 30 11:03:54 2018","#000000","high","4","The main experiment item","yes","","exp2.osexp","/Users/tom/github/sft-fraction/exp2","mono","Zapfino","no","mono","no","24","no","white","no","yes","800","legacy","93","93","0","/Users/tom/github/sft-fraction/exp2/data/subject-1a.csv","legacy","#757575","low","2","Jazzy James","3.1.9","0","a","NA","right alt","space","space","a","NA","1051","NA","22406","12969","22086","1051","NA","2","legacy","1024","2","48000","-16","experiment","1","odd","absent","58912","58912","NA","162112","1354","58896","196570","197089","1390","23820","36808","197089","198142","NA","196551","Fraction component detection task","88","76040","94","yes","1280"
"93.6842105263","93.6842105263","806.873684211","806.873684211","#808080","no","legacy","legacy","legacy","0","uniform","1","undefined","undefined","undefined","1","l","0","0","0","94","0","0","94","94","0","0","0","94","94","0","94","Mon Apr 30 11:03:54 2018","#757575","low","7","The main experiment item","yes","","exp2.osexp","/Users/tom/github/sft-fraction/exp2","Zapfino","mono","no","mono","no","24","no","white","no","yes","800","legacy","94","94","0","/Users/tom/github/sft-fraction/exp2/data/subject-1a.csv","legacy","#000000","high","8","Jazzy James","3.1.9","0","l","NA","right alt","space","space","l","NA","613","NA","22406","12969","22086","613","NA","2","legacy","1024","2","48000","-16","experiment","1","odd","present","58912","58912","NA","162112","1354","58896","198223","198743","1390","23820","36808","198743","199359","NA","198207","Fraction component detection task","89","76653","95","yes","1280"
"93.75","93.75","804.770833333","804.770833333","#808080","no","legacy","legacy","legacy","0","uniform","1","undefined","undefined","undefined","1","l","0","0","0","95","0","0","95","95","0","0","0","95","95","0","95","Mon Apr 30 11:03:54 2018","#757575","low","8","The main experiment item","yes","","exp2.osexp","/Users/tom/github/sft-fraction/exp2","Zapfino","Zapfino","no","mono","no","24","no","white","no","yes","800","legacy","95","95","0","/Users/tom/github/sft-fraction/exp2/data/subject-1a.csv","legacy","#757575","low","8","Jazzy James","3.1.9","0","l","NA","right alt","space","space","l","NA","605","NA","22406","12969","22086","605","NA","2","legacy","1024","2","48000","-16","experiment","1","odd","present","58912","58912","NA","162112","1354","58896","199450","199966","1390","23820","36808","199967","200575","NA","199431","Fraction component detection task","90","77258","96","yes","1280"
"93.8144329897","93.8144329897","803.536082474","803.536082474","#808080","no","legacy","legacy","legacy","0","uniform","1","undefined","undefined","undefined","1","a","0","0","0","96","0","0","96","96","0","0","0","96","96","0","96","Mon Apr 30 11:03:54 2018","#000000","high","3","The main experiment item","yes","","exp2.osexp","/Users/tom/github/sft-fraction/exp2","mono","Zapfino","no","mono","no","24","no","white","no","yes","800","legacy","96","96","0","/Users/tom/github/sft-fraction/exp2/data/subject-1a.csv","legacy","#757575","low","4","Jazzy James","3.1.9","0","a","NA","right alt","space","space","a","NA","685","NA","22406","12969","22086","685","NA","2","legacy","1024","2","48000","-16","experiment","1","odd","absent","58912","58912","NA","162112","1354","58896","200666","201184","1390","23820","36808","201184","201872","NA","200645","Fraction component detection task","91","77943","97","yes","1280"
"93.8775510204","93.8775510204","805.030612245","805.030612245","#808080","no","legacy","legacy","legacy","0","uniform","1","undefined","undefined","undefined","1","l","0","0","0","97","0","0","97","97","0","0","0","97","97","0","97","Mon Apr 30 11:03:54 2018","#757575","low","7","The main experiment item","yes","","exp2.osexp","/Users/tom/github/sft-fraction/exp2","Zapfino","Zapfino","no","mono","no","24","no","white","no","yes","800","legacy","97","97","0","/Users/tom/github/sft-fraction/exp2/data/subject-1a.csv","legacy","#757575","low","3","Jazzy James","3.1.9","0","l","NA","right alt","space","space","l","NA","950","NA","22406","12969","22086","950","NA","2","legacy","1024","2","48000","-16","experiment","1","odd","present","58912","58912","NA","162112","1354","58896","201953","202470","1390","23820","36808","202470","203423","NA","201937","Fraction component detection task","92","78893","98","yes","1280"
"93.9393939394","93.9393939394","803.050505051","803.050505051","#808080","no","legacy","legacy","legacy","0","uniform","1","undefined","undefined","undefined","1","l","0","0","0","98","0","0","98","98","0","0","0","98","98","0","98","Mon Apr 30 11:03:54 2018","#000000","high","2","The main experiment item","yes","","exp2.osexp","/Users/tom/github/sft-fraction/exp2","mono","Zapfino","no","mono","no","24","no","white","no","yes","800","legacy","98","98","0","/Users/tom/github/sft-fraction/exp2/data/subject-1a.csv","legacy","#757575","low","6","Jazzy James","3.1.9","0","l","NA","right alt","space","space","l","NA","609","NA","22406","12969","22086","609","NA","2","legacy","1024","2","48000","-16","experiment","1","odd","present","58912","58912","NA","162112","1354","58896","203502","204019","1390","23820","36808","204019","204632","NA","203486","Fraction component detection task","93","79502","99","yes","1280"
"93","93","802.46","802.46","#808080","no","legacy","legacy","legacy","0","uniform","0","undefined","undefined","undefined","0","l","0","0","0","99","0","0","99","99","0","0","0","99","99","0","99","Mon Apr 30 11:03:54 2018","#757575","low","8","The main experiment item","yes","","exp2.osexp","/Users/tom/github/sft-fraction/exp2","Zapfino","Zapfino","no","mono","no","24","no","white","no","yes","800","legacy","99","99","0","/Users/tom/github/sft-fraction/exp2/data/subject-1a.csv","legacy","#757575","low","4","Jazzy James","3.1.9","0","a","NA","right alt","space","space","a","NA","744","NA","22406","12969","22086","744","NA","2","legacy","1024","2","48000","-16","experiment","1","odd","present","58912","58912","NA","162112","1354","58896","204717","205237","1390","23820","36808","205237","205984","NA","204701","Fraction component detection task","93","80246","100","yes","1280"
"93.0693069307","93.0693069307","803.485148515","803.485148515","#808080","no","legacy","legacy","legacy","0","uniform","1","undefined","undefined","undefined","1","a","0","0","0","100","0","0","100","100","0","0","0","100","100","0","100","Mon Apr 30 11:03:54 2018","#757575","low","3","The main experiment item","yes","","exp2.osexp","/Users/tom/github/sft-fraction/exp2","Zapfino","Zapfino","no","mono","no","24","no","white","no","yes","800","legacy","100","100","0","/Users/tom/github/sft-fraction/exp2/data/subject-1a.csv","legacy","#757575","low","2","Jazzy James","3.1.9","0","a","NA","right alt","space","space","a","NA","906","NA","22406","12969","22086","906","NA","2","legacy","1024","2","48000","-16","experiment","1","odd","absent","58912","58912","NA","206002","1354","58896","207084","207602","1390","23820","36808","207602","208512","NA","207067","Fraction component detection task","94","81152","101","yes","1280"
"92.1568627451","92.1568627451","804.431372549","804.431372549","#808080","no","legacy","legacy","legacy","0","uniform","0","undefined","undefined","undefined","0","a","0","0","0","101","0","0","101","101","0","0","0","101","101","0","101","Mon Apr 30 11:03:54 2018","#757575","low","3","The main experiment item","yes","","exp2.osexp","/Users/tom/github/sft-fraction/exp2","Zapfino","mono","no","mono","no","24","no","white","no","yes","800","legacy","101","101","0","/Users/tom/github/sft-fraction/exp2/data/subject-1a.csv","legacy","#000000","high","2","Jazzy James","3.1.9","0","l","NA","right alt","space","space","l","NA","900","NA","22406","12969","22086","900","NA","2","legacy","1024","2","48000","-16","experiment","1","odd","absent","58912","58912","NA","206002","1354","58896","208596","209113","1390","23820","36808","209113","210017","NA","208581","Fraction component detection task","94","82052","102","yes","1280"
"92.2330097087","92.2330097087","804.844660194","804.844660194","#808080","no","legacy","legacy","legacy","0","uniform","1","undefined","undefined","undefined","1","a","0","0","0","102","0","0","102","102","0","0","0","102","102","0","102","Mon Apr 30 11:03:54 2018","#757575","low","4","The main experiment item","yes","","exp2.osexp","/Users/tom/github/sft-fraction/exp2","Zapfino","Zapfino","no","mono","no","24","no","white","no","yes","800","legacy","102","102","0","/Users/tom/github/sft-fraction/exp2/data/subject-1a.csv","legacy","#757575","low","2","Jazzy James","3.1.9","0","a","NA","right alt","space","space","a","NA","847","NA","22406","12969","22086","847","NA","2","legacy","1024","2","48000","-16","experiment","1","odd","absent","58912","58912","NA","210037","1354","58896","211119","211636","1390","23820","36808","211637","212487","NA","211103","Fraction component detection task","95","82899","103","yes","1280"
"92.3076923077","92.3076923077","812.298076923","812.298076923","#808080","no","legacy","legacy","legacy","0","uniform","1","undefined","undefined","undefined","1","a","0","0","0","103","0","0","103","103","0","0","0","103","103","0","103","Mon Apr 30 11:03:54 2018","#000000","high","4","The main experiment item","yes","","exp2.osexp","/Users/tom/github/sft-fraction/exp2","mono","mono","no","mono","no","24","no","white","no","yes","800","legacy","103","103","0","/Users/tom/github/sft-fraction/exp2/data/subject-1a.csv","legacy","#000000","high","3","Jazzy James","3.1.9","0","a","NA","right alt","space","space","a","NA","1580","NA","22406","12969","22086","1580","NA","2","legacy","1024","2","48000","-16","experiment","1","odd","absent","58912","58912","NA","210037","1354","58896","212570","213090","1390","23820","36808","213090","214674","NA","212555","Fraction component detection task","96","84479","104","yes","1280"
"92.380952381","92.380952381","812.171428571","812.171428571","#808080","no","legacy","legacy","legacy","0","uniform","1","undefined","undefined","undefined","1","l","0","0","0","104","0","0","104","104","0","0","0","104","104","0","104","Mon Apr 30 11:03:54 2018","#757575","low","7","The main experiment item","yes","","exp2.osexp","/Users/tom/github/sft-fraction/exp2","Zapfino","Zapfino","no","mono","no","24","no","white","no","yes","800","legacy","104","104","0","/Users/tom/github/sft-fraction/exp2/data/subject-1a.csv","legacy","#757575","low","8","Jazzy James","3.1.9","0","l","NA","right alt","space","space","l","NA","799","NA","22406","12969","22086","799","NA","2","legacy","1024","2","48000","-16","experiment","1","odd","present","58912","58912","NA","210037","1354","58896","214762","215278","1390","23820","36808","215278","216079","NA","214746","Fraction component detection task","97","85278","105","yes","1280"
"91.5094339623","91.5094339623","813.820754717","813.820754717","#808080","no","legacy","legacy","legacy","0","uniform","0","undefined","undefined","undefined","0","a","0","0","0","105","0","0","105","105","0","0","0","105","105","0","105","Mon Apr 30 11:03:54 2018","#000000","high","4","The main experiment item","yes","","exp2.osexp","/Users/tom/github/sft-fraction/exp2","mono","mono","no","mono","no","24","no","white","no","yes","800","legacy","105","105","0","/Users/tom/github/sft-fraction/exp2/data/subject-1a.csv","legacy","#000000","high","2","Jazzy James","3.1.9","0","l","NA","right alt","space","space","l","NA","987","NA","22406","12969","22086","987","NA","2","legacy","1024","2","48000","-16","experiment","1","odd","absent","58912","58912","NA","210037","1354","58896","216166","216683","1390","23820","36808","216683","217673","NA","216149","Fraction component detection task","97","86265","106","yes","1280"
"91.5887850467","91.5887850467","821.065420561","821.065420561","#808080","no","legacy","legacy","legacy","0","uniform","1","undefined","undefined","undefined","1","l","0","0","0","106","0","0","106","106","0","0","0","106","106","0","106","Mon Apr 30 11:03:54 2018","#000000","high","3","The main experiment item","yes","","exp2.osexp","/Users/tom/github/sft-fraction/exp2","mono","Zapfino","no","mono","no","24","no","white","no","yes","800","legacy","106","106","0","/Users/tom/github/sft-fraction/exp2/data/subject-1a.csv","legacy","#757575","low","8","Jazzy James","3.1.9","0","l","NA","right alt","space","space","l","NA","1589","NA","22406","12969","22086","1589","NA","2","legacy","1024","2","48000","-16","experiment","1","odd","present","58912","58912","NA","217692","1354","58896","218773","219289","1390","23820","36808","219289","220881","NA","218756","Fraction component detection task","98","87854","107","yes","1280"
