"acc","accuracy","average_response_time","avg_rt","background","bidi","canvas_backend","clock_backend","color_backend","compensation","coordinates","correct","correct_instructions1","correct_instructions2","correct_instructions3","correct_keyboard_response","correct_response","count_block_loop","count_block_sequence","count_end_of_experiment","count_error","count_experiment","count_experimental_loop","count_fixation_dot","count_fraction","count_instructions1","count_instructions2","count_instructions3","count_keyboard_response","count_logger","count_rest","count_trial_sequence","datetime","denomColor","denomSalience","denominator","description","disable_garbage_collection","empty_column","experiment_file","experiment_path","font_bold","font_family","font_italic","font_size","font_underline","foreground","form_clicks","fullscreen","height","keyboard_backend","live_row","live_row_block_loop","live_row_experimental_loop","logfile","mouse_backend","numColor","numSalience","numerator","opensesame_codename","opensesame_version","repeat_cycle","response","response_end_of_experiment","response_instructions1","response_instructions2","response_instructions3","response_keyboard_response","response_rest","response_time","response_time_end_of_experiment","response_time_instructions1","response_time_instructions2","response_time_instructions3","response_time_keyboard_response","response_time_rest","round_decimals","sampler_backend","sound_buf_size","sound_channels","sound_freq","sound_sample_size","start","subject_nr","subject_parity","target","time_block_loop","time_block_sequence","time_end_of_experiment","time_error","time_experiment","time_experimental_loop","time_fixation_dot","time_fraction","time_instructions1","time_instructions2","time_instructions3","time_keyboard_response","time_logger","time_rest","time_trial_sequence","title","total_correct","total_response_time","total_responses","uniform_coordinates","width"
"100","100","603","603","#808080","no","legacy","legacy","legacy","0","uniform","1","undefined","undefined","undefined","1","l","0","0","0","0","0","0","0","0","0","0","0","0","0","0","0","Thu Apr 26 08:56:32 2018","#757575","low","7","The main experiment item","yes","","experiment.osexp","/Users/tom/github/sft-fraction/procedure","no","mono","no","24","no","white","no","yes","800","legacy","0","0","0","/Users/tom/github/sft-fraction/results/data/subject-1b.csv","legacy","#757575","low","3","Jazzy James","3.1.9","0","l","NA","space","space","a","l","NA","603","NA","29031","958","838","603","NA","2","legacy","1024","2","48000","-16","experiment","1","odd","present","32320","32320","NA","NA","1416","32305","32374","32892","1440","30489","31465","32892","33502","NA","32356","Fraction component detection task","1","603","1","yes","1280"
"100","100","604","604","#808080","no","legacy","legacy","legacy","0","uniform","1","undefined","undefined","undefined","1","a","0","0","0","1","0","0","1","1","0","0","0","1","1","0","1","Thu Apr 26 08:56:32 2018","#757575","low","3","The main experiment item","yes","","experiment.osexp","/Users/tom/github/sft-fraction/procedure","no","mono","no","24","no","white","no","yes","800","legacy","1","1","0","/Users/tom/github/sft-fraction/results/data/subject-1b.csv","legacy","#757575","low","4","Jazzy James","3.1.9","0","a","NA","space","space","a","a","NA","605","NA","29031","958","838","605","NA","2","legacy","1024","2","48000","-16","experiment","1","odd","absent","32320","32320","NA","NA","1416","32305","33599","34116","1440","30489","31465","34116","34723","NA","33581","Fraction component detection task","2","1208","2","yes","1280"
"100","100","541.333333333","541.333333333","#808080","no","legacy","legacy","legacy","0","uniform","1","undefined","undefined","undefined","1","a","0","0","0","2","0","0","2","2","0","0","0","2","2","0","2","Thu Apr 26 08:56:32 2018","#757575","low","2","The main experiment item","yes","","experiment.osexp","/Users/tom/github/sft-fraction/procedure","no","mono","no","24","no","white","no","yes","800","legacy","2","2","0","/Users/tom/github/sft-fraction/results/data/subject-1b.csv","legacy","#757575","low","2","Jazzy James","3.1.9","0","a","NA","space","space","a","a","NA","416","NA","29031","958","838","416","NA","2","legacy","1024","2","48000","-16","experiment","1","odd","absent","32320","32320","NA","NA","1416","32305","34811","35328","1440","30489","31465","35328","35746","NA","34791","Fraction component detection task","3","1624","3","yes","1280"
"100","100","521.25","521.25","#808080","no","legacy","legacy","legacy","0","uniform","1","undefined","undefined","undefined","1","l","0","0","0","3","0","0","3","3","0","0","0","3","3","0","3","Thu Apr 26 08:56:32 2018","#000000","high","3","The main experiment item","yes","","experiment.osexp","/Users/tom/github/sft-fraction/procedure","no","mono","no","24","no","white","no","yes","800","legacy","3","3","0","/Users/tom/github/sft-fraction/results/data/subject-1b.csv","legacy","#757575","low","8","Jazzy James","3.1.9","0","l","NA","space","space","a","l","NA","461","NA","29031","958","838","461","NA","2","legacy","1024","2","48000","-16","experiment","1","odd","present","32320","32320","NA","NA","1416","32305","35826","36346","1440","30489","31465","36347","36810","NA","35810","Fraction component detection task","4","2085","4","yes","1280"
"100","100","506.2","506.2","#808080","no","legacy","legacy","legacy","0","uniform","1","undefined","undefined","undefined","1","a","0","0","0","4","0","0","4","4","0","0","0","4","4","0","4","Thu Apr 26 08:56:32 2018","#000000","high","3","The main experiment item","yes","","experiment.osexp","/Users/tom/github/sft-fraction/procedure","no","mono","no","24","no","white","no","yes","800","legacy","4","4","0","/Users/tom/github/sft-fraction/results/data/subject-1b.csv","legacy","#000000","high","4","Jazzy James","3.1.9","0","a","NA","space","space","a","a","NA","446","NA","29031","958","838","446","NA","2","legacy","1024","2","48000","-16","experiment","1","odd","absent","32320","32320","NA","NA","1416","32305","36897","37418","1440","30489","31465","37418","37866","NA","36879","Fraction component detection task","5","2531","5","yes","1280"
"100","100","479.833333333","479.833333333","#808080","no","legacy","legacy","legacy","0","uniform","1","undefined","undefined","undefined","1","a","0","0","0","5","0","0","5","5","0","0","0","5","5","0","5","Thu Apr 26 08:56:32 2018","#000000","high","2","The main experiment item","yes","","experiment.osexp","/Users/tom/github/sft-fraction/procedure","no","mono","no","24","no","white","no","yes","800","legacy","5","5","0","/Users/tom/github/sft-fraction/results/data/subject-1b.csv","legacy","#000000","high","4","Jazzy James","3.1.9","0","a","NA","space","space","a","a","NA","348","NA","29031","958","838","348","NA","2","legacy","1024","2","48000","-16","experiment","1","odd","absent","32320","32320","NA","NA","1416","32305","37950","38469","1440","30489","31465","38469","38818","NA","37934","Fraction component detection task","6","2879","6","yes","1280"
"100","100","476.428571429","476.428571429","#808080","no","legacy","legacy","legacy","0","uniform","1","undefined","undefined","undefined","1","a","0","0","0","6","0","0","6","6","0","0","0","6","6","0","6","Thu Apr 26 08:56:32 2018","#000000","high","2","The main experiment item","yes","","experiment.osexp","/Users/tom/github/sft-fraction/procedure","no","mono","no","24","no","white","no","yes","800","legacy","6","6","0","/Users/tom/github/sft-fraction/results/data/subject-1b.csv","legacy","#757575","low","4","Jazzy James","3.1.9","0","a","NA","space","space","a","a","NA","456","NA","29031","958","838","456","NA","2","legacy","1024","2","48000","-16","experiment","1","odd","absent","32320","32320","NA","NA","1416","32305","38907","39425","1440","30489","31465","39425","39883","NA","38886","Fraction component detection task","7","3335","7","yes","1280"
"100","100","465.5","465.5","#808080","no","legacy","legacy","legacy","0","uniform","1","undefined","undefined","undefined","1","l","0","0","0","7","0","0","7","7","0","0","0","7","7","0","7","Thu Apr 26 08:56:32 2018","#757575","low","7","The main experiment item","yes","","experiment.osexp","/Users/tom/github/sft-fraction/procedure","no","mono","no","24","no","white","no","yes","800","legacy","7","7","0","/Users/tom/github/sft-fraction/results/data/subject-1b.csv","legacy","#000000","high","3","Jazzy James","3.1.9","0","l","NA","space","space","a","l","NA","389","NA","29031","958","838","389","NA","2","legacy","1024","2","48000","-16","experiment","1","odd","present","32320","32320","NA","NA","1416","32305","39971","40491","1440","30489","31465","40492","40882","NA","39950","Fraction component detection task","8","3724","8","yes","1280"
"100","100","464.111111111","464.111111111","#808080","no","legacy","legacy","legacy","0","uniform","1","undefined","undefined","undefined","1","a","0","0","0","8","0","0","8","8","0","0","0","8","8","0","8","Thu Apr 26 08:56:32 2018","#000000","high","3","The main experiment item","yes","","experiment.osexp","/Users/tom/github/sft-fraction/procedure","no","mono","no","24","no","white","no","yes","800","legacy","8","8","0","/Users/tom/github/sft-fraction/results/data/subject-1b.csv","legacy","#757575","low","4","Jazzy James","3.1.9","0","a","NA","space","space","a","a","NA","453","NA","29031","958","838","453","NA","2","legacy","1024","2","48000","-16","experiment","1","odd","absent","32320","32320","NA","NA","1416","32305","40966","41484","1440","30489","31465","41484","41939","NA","40951","Fraction component detection task","9","4177","9","yes","1280"
"100","100","462.6","462.6","#808080","no","legacy","legacy","legacy","0","uniform","1","undefined","undefined","undefined","1","l","0","0","0","9","0","0","9","9","0","0","0","9","9","0","9","Thu Apr 26 08:56:32 2018","#000000","high","4","The main experiment item","yes","","experiment.osexp","/Users/tom/github/sft-fraction/procedure","no","mono","no","24","no","white","no","yes","800","legacy","9","9","0","/Users/tom/github/sft-fraction/results/data/subject-1b.csv","legacy","#000000","high","8","Jazzy James","3.1.9","0","l","NA","space","space","a","l","NA","449","NA","29031","958","838","449","NA","2","legacy","1024","2","48000","-16","experiment","1","odd","present","32320","32320","NA","NA","1416","32305","42018","42536","1440","30489","31465","42536","42986","NA","42003","Fraction component detection task","10","4626","10","yes","1280"
"100","100","462.181818182","462.181818182","#808080","no","legacy","legacy","legacy","0","uniform","1","undefined","undefined","undefined","1","l","0","0","0","10","0","0","10","10","0","0","0","10","10","0","10","Thu Apr 26 08:56:32 2018","#000000","high","8","The main experiment item","yes","","experiment.osexp","/Users/tom/github/sft-fraction/procedure","no","mono","no","24","no","white","no","yes","800","legacy","10","10","0","/Users/tom/github/sft-fraction/results/data/subject-1b.csv","legacy","#757575","low","6","Jazzy James","3.1.9","0","l","NA","space","space","a","l","NA","458","NA","29031","958","838","458","NA","2","legacy","1024","2","48000","-16","experiment","1","odd","present","32320","32320","NA","NA","1416","32305","43065","43581","1440","30489","31465","43582","44041","NA","43049","Fraction component detection task","11","5084","11","yes","1280"
"91.6666666667","91.6666666667","459.416666667","459.416666667","#808080","no","legacy","legacy","legacy","0","uniform","0","undefined","undefined","undefined","0","l","0","0","0","11","0","0","11","11","0","0","0","11","11","0","11","Thu Apr 26 08:56:32 2018","#757575","low","2","The main experiment item","yes","","experiment.osexp","/Users/tom/github/sft-fraction/procedure","no","mono","no","24","no","white","no","yes","800","legacy","11","11","0","/Users/tom/github/sft-fraction/results/data/subject-1b.csv","legacy","#757575","low","6","Jazzy James","3.1.9","0","a","NA","space","space","a","a","NA","429","NA","29031","958","838","429","NA","2","legacy","1024","2","48000","-16","experiment","1","odd","present","32320","32320","NA","NA","1416","32305","44125","44643","1440","30489","31465","44643","45074","NA","44110","Fraction component detection task","11","5513","12","yes","1280"
"92.3076923077","92.3076923077","457","457","#808080","no","legacy","legacy","legacy","0","uniform","1","undefined","undefined","undefined","1","l","0","0","0","12","0","0","12","12","0","0","0","12","12","0","12","Thu Apr 26 08:56:32 2018","#000000","high","2","The main experiment item","yes","","experiment.osexp","/Users/tom/github/sft-fraction/procedure","no","mono","no","24","no","white","no","yes","800","legacy","12","12","0","/Users/tom/github/sft-fraction/results/data/subject-1b.csv","legacy","#000000","high","8","Jazzy James","3.1.9","0","l","NA","space","space","a","l","NA","428","NA","29031","958","838","428","NA","2","legacy","1024","2","48000","-16","experiment","1","odd","present","32320","32320","NA","45093","1416","32305","46183","46700","1440","30489","31465","46700","47130","NA","46162","Fraction component detection task","12","5941","13","yes","1280"
"92.8571428571","92.8571428571","461.785714286","461.785714286","#808080","no","legacy","legacy","legacy","0","uniform","1","undefined","undefined","undefined","1","a","0","0","0","13","0","0","13","13","0","0","0","13","13","0","13","Thu Apr 26 08:56:32 2018","#000000","high","3","The main experiment item","yes","","experiment.osexp","/Users/tom/github/sft-fraction/procedure","no","mono","no","24","no","white","no","yes","800","legacy","13","13","0","/Users/tom/github/sft-fraction/results/data/subject-1b.csv","legacy","#757575","low","2","Jazzy James","3.1.9","0","a","NA","space","space","a","a","NA","524","NA","29031","958","838","524","NA","2","legacy","1024","2","48000","-16","experiment","1","odd","absent","32320","32320","NA","45093","1416","32305","47214","47732","1440","30489","31465","47732","48258","NA","47194","Fraction component detection task","13","6465","14","yes","1280"
"93.3333333333","93.3333333333","463.066666667","463.066666667","#808080","no","legacy","legacy","legacy","0","uniform","1","undefined","undefined","undefined","1","a","0","0","0","14","0","0","14","14","0","0","0","14","14","0","14","Thu Apr 26 08:56:32 2018","#000000","high","2","The main experiment item","yes","","experiment.osexp","/Users/tom/github/sft-fraction/procedure","no","mono","no","24","no","white","no","yes","800","legacy","14","14","0","/Users/tom/github/sft-fraction/results/data/subject-1b.csv","legacy","#000000","high","4","Jazzy James","3.1.9","0","a","NA","space","space","a","a","NA","481","NA","29031","958","838","481","NA","2","legacy","1024","2","48000","-16","experiment","1","odd","absent","32320","32320","NA","45093","1416","32305","48345","48863","1440","30489","31465","48863","49346","NA","48329","Fraction component detection task","14","6946","15","yes","1280"
"93.75","93.75","466.125","466.125","#808080","no","legacy","legacy","legacy","0","uniform","1","undefined","undefined","undefined","1","l","0","0","0","15","0","0","15","15","0","0","0","15","15","0","15","Thu Apr 26 08:56:32 2018","#000000","high","8","The main experiment item","yes","","experiment.osexp","/Users/tom/github/sft-fraction/procedure","no","mono","no","24","no","white","no","yes","800","legacy","15","15","0","/Users/tom/github/sft-fraction/results/data/subject-1b.csv","legacy","#000000","high","4","Jazzy James","3.1.9","0","l","NA","space","space","a","l","NA","512","NA","29031","958","838","512","NA","2","legacy","1024","2","48000","-16","experiment","1","odd","present","32320","32320","NA","45093","1416","32305","49424","49944","1440","30489","31465","49944","50459","NA","49409","Fraction component detection task","15","7458","16","yes","1280"
"94.1176470588","94.1176470588","466.529411765","466.529411765","#808080","no","legacy","legacy","legacy","0","uniform","1","undefined","undefined","undefined","1","l","0","0","0","16","0","0","16","16","0","0","0","16","16","0","16","Thu Apr 26 08:56:32 2018","#000000","high","7","The main experiment item","yes","","experiment.osexp","/Users/tom/github/sft-fraction/procedure","no","mono","no","24","no","white","no","yes","800","legacy","16","16","0","/Users/tom/github/sft-fraction/results/data/subject-1b.csv","legacy","#757575","low","7","Jazzy James","3.1.9","0","l","NA","space","space","a","l","NA","473","NA","29031","958","838","473","NA","2","legacy","1024","2","48000","-16","experiment","1","odd","present","32320","32320","NA","45093","1416","32305","50547","51064","1440","30489","31465","51064","51539","NA","50531","Fraction component detection task","16","7931","17","yes","1280"
"94.4444444444","94.4444444444","467.888888889","467.888888889","#808080","no","legacy","legacy","legacy","0","uniform","1","undefined","undefined","undefined","1","a","0","0","0","17","0","0","17","17","0","0","0","17","17","0","17","Thu Apr 26 08:56:32 2018","#000000","high","4","The main experiment item","yes","","experiment.osexp","/Users/tom/github/sft-fraction/procedure","no","mono","no","24","no","white","no","yes","800","legacy","17","17","0","/Users/tom/github/sft-fraction/results/data/subject-1b.csv","legacy","#000000","high","2","Jazzy James","3.1.9","0","a","NA","space","space","a","a","NA","491","NA","29031","958","838","491","NA","2","legacy","1024","2","48000","-16","experiment","1","odd","absent","32320","32320","NA","45093","1416","32305","51626","52142","1440","30489","31465","52142","52636","NA","51607","Fraction component detection task","17","8422","18","yes","1280"
"94.7368421053","94.7368421053","469.894736842","469.894736842","#808080","no","legacy","legacy","legacy","0","uniform","1","undefined","undefined","undefined","1","l","0","0","0","18","0","0","18","18","0","0","0","18","18","0","18","Thu Apr 26 08:56:32 2018","#000000","high","6","The main experiment item","yes","","experiment.osexp","/Users/tom/github/sft-fraction/procedure","no","mono","no","24","no","white","no","yes","800","legacy","18","18","0","/Users/tom/github/sft-fraction/results/data/subject-1b.csv","legacy","#757575","low","7","Jazzy James","3.1.9","0","l","NA","space","space","a","l","NA","506","NA","29031","958","838","506","NA","2","legacy","1024","2","48000","-16","experiment","1","odd","present","32320","32320","NA","45093","1416","32305","52723","53239","1440","30489","31465","53239","53747","NA","52706","Fraction component detection task","18","8928","19","yes","1280"
"95","95","467.15","467.15","#808080","no","legacy","legacy","legacy","0","uniform","1","undefined","undefined","undefined","1","a","0","0","0","19","0","0","19","19","0","0","0","19","19","0","19","Thu Apr 26 08:56:32 2018","#757575","low","4","The main experiment item","yes","","experiment.osexp","/Users/tom/github/sft-fraction/procedure","no","mono","no","24","no","white","no","yes","800","legacy","19","19","0","/Users/tom/github/sft-fraction/results/data/subject-1b.csv","legacy","#757575","low","4","Jazzy James","3.1.9","0","a","NA","space","space","a","a","NA","415","NA","29031","958","838","415","NA","2","legacy","1024","2","48000","-16","experiment","1","odd","absent","32320","32320","NA","45093","1416","32305","53829","54345","1440","30489","31465","54346","54764","NA","53813","Fraction component detection task","19","9343","20","yes","1280"
"95.2380952381","95.2380952381","473.333333333","473.333333333","#808080","no","legacy","legacy","legacy","0","uniform","1","undefined","undefined","undefined","1","l","0","0","0","20","0","0","20","20","0","0","0","20","20","0","20","Thu Apr 26 08:56:32 2018","#757575","low","6","The main experiment item","yes","","experiment.osexp","/Users/tom/github/sft-fraction/procedure","no","mono","no","24","no","white","no","yes","800","legacy","20","20","0","/Users/tom/github/sft-fraction/results/data/subject-1b.csv","legacy","#000000","high","3","Jazzy James","3.1.9","0","l","NA","space","space","a","l","NA","597","NA","29031","958","838","597","NA","2","legacy","1024","2","48000","-16","experiment","1","odd","present","32320","32320","NA","45093","1416","32305","54852","55372","1440","30489","31465","55372","55971","NA","54836","Fraction component detection task","20","9940","21","yes","1280"
"95.4545454545","95.4545454545","471.227272727","471.227272727","#808080","no","legacy","legacy","legacy","0","uniform","1","undefined","undefined","undefined","1","a","0","0","0","21","0","0","21","21","0","0","0","21","21","0","21","Thu Apr 26 08:56:32 2018","#757575","low","2","The main experiment item","yes","","experiment.osexp","/Users/tom/github/sft-fraction/procedure","no","mono","no","24","no","white","no","yes","800","legacy","21","21","0","/Users/tom/github/sft-fraction/results/data/subject-1b.csv","legacy","#000000","high","2","Jazzy James","3.1.9","0","a","NA","space","space","a","a","NA","427","NA","29031","958","838","427","NA","2","legacy","1024","2","48000","-16","experiment","1","odd","absent","32320","32320","NA","45093","1416","32305","56049","56566","1440","30489","31465","56566","56996","NA","56033","Fraction component detection task","21","10367","22","yes","1280"
"95.652173913","95.652173913","469.47826087","469.47826087","#808080","no","legacy","legacy","legacy","0","uniform","1","undefined","undefined","undefined","1","l","0","0","0","22","0","0","22","22","0","0","0","22","22","0","22","Thu Apr 26 08:56:32 2018","#000000","high","2","The main experiment item","yes","","experiment.osexp","/Users/tom/github/sft-fraction/procedure","no","mono","no","24","no","white","no","yes","800","legacy","22","22","0","/Users/tom/github/sft-fraction/results/data/subject-1b.csv","legacy","#757575","low","8","Jazzy James","3.1.9","0","l","NA","space","space","a","l","NA","431","NA","29031","958","838","431","NA","2","legacy","1024","2","48000","-16","experiment","1","odd","present","32320","32320","NA","45093","1416","32305","57083","57601","1440","30489","31465","57601","58034","NA","57063","Fraction component detection task","22","10798","23","yes","1280"
"91.6666666667","91.6666666667","469.833333333","469.833333333","#808080","no","legacy","legacy","legacy","0","uniform","0","undefined","undefined","undefined","0","a","0","0","0","23","0","0","23","23","0","0","0","23","23","0","23","Thu Apr 26 08:56:32 2018","#757575","low","4","The main experiment item","yes","","experiment.osexp","/Users/tom/github/sft-fraction/procedure","no","mono","no","24","no","white","no","yes","800","legacy","23","23","0","/Users/tom/github/sft-fraction/results/data/subject-1b.csv","legacy","#000000","high","3","Jazzy James","3.1.9","0","l","NA","space","space","a","l","NA","478","NA","29031","958","838","478","NA","2","legacy","1024","2","48000","-16","experiment","1","odd","absent","32320","32320","NA","45093","1416","32305","58118","58635","1440","30489","31465","58635","59114","NA","58102","Fraction component detection task","22","11276","24","yes","1280"
"92","92","469.04","469.04","#808080","no","legacy","legacy","legacy","0","uniform","1","undefined","undefined","undefined","1","a","0","0","0","24","0","0","24","24","0","0","0","24","24","0","24","Thu Apr 26 08:56:32 2018","#000000","high","4","The main experiment item","yes","","experiment.osexp","/Users/tom/github/sft-fraction/procedure","no","mono","no","24","no","white","no","yes","800","legacy","24","24","0","/Users/tom/github/sft-fraction/results/data/subject-1b.csv","legacy","#000000","high","3","Jazzy James","3.1.9","0","a","NA","space","space","a","a","NA","450","NA","29031","958","838","450","NA","2","legacy","1024","2","48000","-16","experiment","1","odd","absent","32320","32320","NA","59136","1416","32305","60217","60735","1440","30489","31465","60735","61186","NA","60201","Fraction component detection task","23","11726","25","yes","1280"
"92.3076923077","92.3076923077","465.923076923","465.923076923","#808080","no","legacy","legacy","legacy","0","uniform","1","undefined","undefined","undefined","1","a","0","0","0","25","0","0","25","25","0","0","0","25","25","0","25","Thu Apr 26 08:56:32 2018","#000000","high","4","The main experiment item","yes","","experiment.osexp","/Users/tom/github/sft-fraction/procedure","no","mono","no","24","no","white","no","yes","800","legacy","25","25","0","/Users/tom/github/sft-fraction/results/data/subject-1b.csv","legacy","#000000","high","3","Jazzy James","3.1.9","0","a","NA","space","space","a","a","NA","388","NA","29031","958","838","388","NA","2","legacy","1024","2","48000","-16","experiment","1","odd","absent","32320","32320","NA","59136","1416","32305","61268","61789","1440","30489","31465","61789","62179","NA","61252","Fraction component detection task","24","12114","26","yes","1280"
"92.5925925926","92.5925925926","464.62962963","464.62962963","#808080","no","legacy","legacy","legacy","0","uniform","1","undefined","undefined","undefined","1","a","0","0","0","26","0","0","26","26","0","0","0","26","26","0","26","Thu Apr 26 08:56:32 2018","#000000","high","3","The main experiment item","yes","","experiment.osexp","/Users/tom/github/sft-fraction/procedure","no","mono","no","24","no","white","no","yes","800","legacy","26","26","0","/Users/tom/github/sft-fraction/results/data/subject-1b.csv","legacy","#000000","high","3","Jazzy James","3.1.9","0","a","NA","space","space","a","a","NA","431","NA","29031","958","838","431","NA","2","legacy","1024","2","48000","-16","experiment","1","odd","absent","32320","32320","NA","59136","1416","32305","62258","62778","1440","30489","31465","62778","63211","NA","62243","Fraction component detection task","25","12545","27","yes","1280"
"92.8571428571","92.8571428571","463.821428571","463.821428571","#808080","no","legacy","legacy","legacy","0","uniform","1","undefined","undefined","undefined","1","a","0","0","0","27","0","0","27","27","0","0","0","27","27","0","27","Thu Apr 26 08:56:32 2018","#000000","high","2","The main experiment item","yes","","experiment.osexp","/Users/tom/github/sft-fraction/procedure","no","mono","no","24","no","white","no","yes","800","legacy","27","27","0","/Users/tom/github/sft-fraction/results/data/subject-1b.csv","legacy","#757575","low","3","Jazzy James","3.1.9","0","a","NA","space","space","a","a","NA","442","NA","29031","958","838","442","NA","2","legacy","1024","2","48000","-16","experiment","1","odd","absent","32320","32320","NA","59136","1416","32305","63294","63815","1440","30489","31465","63815","64260","NA","63275","Fraction component detection task","26","12987","28","yes","1280"
"93.1034482759","93.1034482759","462.379310345","462.379310345","#808080","no","legacy","legacy","legacy","0","uniform","1","undefined","undefined","undefined","1","a","0","0","0","28","0","0","28","28","0","0","0","28","28","0","28","Thu Apr 26 08:56:32 2018","#757575","low","3","The main experiment item","yes","","experiment.osexp","/Users/tom/github/sft-fraction/procedure","no","mono","no","24","no","white","no","yes","800","legacy","28","28","0","/Users/tom/github/sft-fraction/results/data/subject-1b.csv","legacy","#757575","low","2","Jazzy James","3.1.9","0","a","NA","space","space","a","a","NA","422","NA","29031","958","838","422","NA","2","legacy","1024","2","48000","-16","experiment","1","odd","absent","32320","32320","NA","59136","1416","32305","64342","64859","1440","30489","31465","64859","65283","NA","64326","Fraction component detection task","27","13409","29","yes","1280"
"93.3333333333","93.3333333333","459.233333333","459.233333333","#808080","no","legacy","legacy","legacy","0","uniform","1","undefined","undefined","undefined","1","a","0","0","0","29","0","0","29","29","0","0","0","29","29","0","29","Thu Apr 26 08:56:32 2018","#757575","low","3","The main experiment item","yes","","experiment.osexp","/Users/tom/github/sft-fraction/procedure","no","mono","no","24","no","white","no","yes","800","legacy","29","29","0","/Users/tom/github/sft-fraction/results/data/subject-1b.csv","legacy","#757575","low","3","Jazzy James","3.1.9","0","a","NA","space","space","a","a","NA","368","NA","29031","958","838","368","NA","2","legacy","1024","2","48000","-16","experiment","1","odd","absent","32320","32320","NA","59136","1416","32305","65364","65881","1440","30489","31465","65881","66252","NA","65348","Fraction component detection task","28","13777","30","yes","1280"
"93.5483870968","93.5483870968","460.483870968","460.483870968","#808080","no","legacy","legacy","legacy","0","uniform","1","undefined","undefined","undefined","1","l","0","0","0","30","0","0","30","30","0","0","0","30","30","0","30","Thu Apr 26 08:56:32 2018","#757575","low","8","The main experiment item","yes","","experiment.osexp","/Users/tom/github/sft-fraction/procedure","no","mono","no","24","no","white","no","yes","800","legacy","30","30","0","/Users/tom/github/sft-fraction/results/data/subject-1b.csv","legacy","#757575","low","7","Jazzy James","3.1.9","0","l","NA","space","space","a","l","NA","498","NA","29031","958","838","498","NA","2","legacy","1024","2","48000","-16","experiment","1","odd","present","32320","32320","NA","59136","1416","32305","66337","66855","1440","30489","31465","66855","67355","NA","66316","Fraction component detection task","29","14275","31","yes","1280"
"93.75","93.75","460.75","460.75","#808080","no","legacy","legacy","legacy","0","uniform","1","undefined","undefined","undefined","1","a","0","0","0","31","0","0","31","31","0","0","0","31","31","0","31","Thu Apr 26 08:56:32 2018","#757575","low","3","The main experiment item","yes","","experiment.osexp","/Users/tom/github/sft-fraction/procedure","no","mono","no","24","no","white","no","yes","800","legacy","31","31","0","/Users/tom/github/sft-fraction/results/data/subject-1b.csv","legacy","#000000","high","4","Jazzy James","3.1.9","0","a","NA","space","space","a","a","NA","469","NA","29031","958","838","469","NA","2","legacy","1024","2","48000","-16","experiment","1","odd","absent","32320","32320","NA","59136","1416","32305","67443","67964","1440","30489","31465","67964","68435","NA","67422","Fraction component detection task","30","14744","32","yes","1280"
"93.9393939394","93.9393939394","459.787878788","459.787878788","#808080","no","legacy","legacy","legacy","0","uniform","1","undefined","undefined","undefined","1","a","0","0","0","32","0","0","32","32","0","0","0","32","32","0","32","Thu Apr 26 08:56:32 2018","#000000","high","2","The main experiment item","yes","","experiment.osexp","/Users/tom/github/sft-fraction/procedure","no","mono","no","24","no","white","no","yes","800","legacy","32","32","0","/Users/tom/github/sft-fraction/results/data/subject-1b.csv","legacy","#757575","low","3","Jazzy James","3.1.9","0","a","NA","space","space","a","a","NA","429","NA","29031","958","838","429","NA","2","legacy","1024","2","48000","-16","experiment","1","odd","absent","32320","32320","NA","59136","1416","32305","68517","69036","1440","30489","31465","69036","69467","NA","68501","Fraction component detection task","31","15173","33","yes","1280"
"94.1176470588","94.1176470588","457.558823529","457.558823529","#808080","no","legacy","legacy","legacy","0","uniform","1","undefined","undefined","undefined","1","a","0","0","0","33","0","0","33","33","0","0","0","33","33","0","33","Thu Apr 26 08:56:32 2018","#757575","low","2","The main experiment item","yes","","experiment.osexp","/Users/tom/github/sft-fraction/procedure","no","mono","no","24","no","white","no","yes","800","legacy","33","33","0","/Users/tom/github/sft-fraction/results/data/subject-1b.csv","legacy","#000000","high","4","Jazzy James","3.1.9","0","a","NA","space","space","a","a","NA","384","NA","29031","958","838","384","NA","2","legacy","1024","2","48000","-16","experiment","1","odd","absent","32320","32320","NA","59136","1416","32305","69550","70073","1440","30489","31465","70073","70459","NA","69535","Fraction component detection task","32","15557","34","yes","1280"
"94.2857142857","94.2857142857","458.2","458.2","#808080","no","legacy","legacy","legacy","0","uniform","1","undefined","undefined","undefined","1","l","0","0","0","34","0","0","34","34","0","0","0","34","34","0","34","Thu Apr 26 08:56:32 2018","#757575","low","6","The main experiment item","yes","","experiment.osexp","/Users/tom/github/sft-fraction/procedure","no","mono","no","24","no","white","no","yes","800","legacy","34","34","0","/Users/tom/github/sft-fraction/results/data/subject-1b.csv","legacy","#757575","low","7","Jazzy James","3.1.9","0","l","NA","space","space","a","l","NA","480","NA","29031","958","838","480","NA","2","legacy","1024","2","48000","-16","experiment","1","odd","present","32320","32320","NA","59136","1416","32305","70545","71066","1440","30489","31465","71066","71548","NA","70525","Fraction component detection task","33","16037","35","yes","1280"
"94.4444444444","94.4444444444","458","458","#808080","no","legacy","legacy","legacy","0","uniform","1","undefined","undefined","undefined","1","a","0","0","0","35","0","0","35","35","0","0","0","35","35","0","35","Thu Apr 26 08:56:32 2018","#000000","high","4","The main experiment item","yes","","experiment.osexp","/Users/tom/github/sft-fraction/procedure","no","mono","no","24","no","white","no","yes","800","legacy","35","35","0","/Users/tom/github/sft-fraction/results/data/subject-1b.csv","legacy","#000000","high","2","Jazzy James","3.1.9","0","a","NA","space","space","a","a","NA","451","NA","29031","958","838","451","NA","2","legacy","1024","2","48000","-16","experiment","1","odd","absent","32320","32320","NA","59136","1416","32305","71627","72143","1440","30489","31465","72143","72596","NA","71611","Fraction component detection task","34","16488","36","yes","1280"
"94.5945945946","94.5945945946","459.243243243","459.243243243","#808080","no","legacy","legacy","legacy","0","uniform","1","undefined","undefined","undefined","1","l","0","0","0","36","0","0","36","36","0","0","0","36","36","0","36","Thu Apr 26 08:56:32 2018","#757575","low","7","The main experiment item","yes","","experiment.osexp","/Users/tom/github/sft-fraction/procedure","no","mono","no","24","no","white","no","yes","800","legacy","36","36","0","/Users/tom/github/sft-fraction/results/data/subject-1b.csv","legacy","#000000","high","7","Jazzy James","3.1.9","0","l","NA","space","space","a","l","NA","504","NA","29031","958","838","504","NA","2","legacy","1024","2","48000","-16","experiment","1","odd","present","32320","32320","NA","59136","1416","32305","72678","73194","1440","30489","31465","73194","73700","NA","72663","Fraction component detection task","35","16992","37","yes","1280"
"94.7368421053","94.7368421053","456.263157895","456.263157895","#808080","no","legacy","legacy","legacy","0","uniform","1","undefined","undefined","undefined","1","l","0","0","0","37","0","0","37","37","0","0","0","37","37","0","37","Thu Apr 26 08:56:32 2018","#000000","high","7","The main experiment item","yes","","experiment.osexp","/Users/tom/github/sft-fraction/procedure","no","mono","no","24","no","white","no","yes","800","legacy","37","37","0","/Users/tom/github/sft-fraction/results/data/subject-1b.csv","legacy","#000000","high","3","Jazzy James","3.1.9","0","l","NA","space","space","a","l","NA","346","NA","29031","958","838","346","NA","2","legacy","1024","2","48000","-16","experiment","1","odd","present","32320","32320","NA","59136","1416","32305","73786","74304","1440","30489","31465","74304","74652","NA","73770","Fraction component detection task","36","17338","38","yes","1280"
"94.8717948718","94.8717948718","454.820512821","454.820512821","#808080","no","legacy","legacy","legacy","0","uniform","1","undefined","undefined","undefined","1","l","0","0","0","38","0","0","38","38","0","0","0","38","38","0","38","Thu Apr 26 08:56:32 2018","#757575","low","7","The main experiment item","yes","","experiment.osexp","/Users/tom/github/sft-fraction/procedure","no","mono","no","24","no","white","no","yes","800","legacy","38","38","0","/Users/tom/github/sft-fraction/results/data/subject-1b.csv","legacy","#757575","low","7","Jazzy James","3.1.9","0","l","NA","space","space","a","l","NA","400","NA","29031","958","838","400","NA","2","legacy","1024","2","48000","-16","experiment","1","odd","present","32320","32320","NA","59136","1416","32305","74734","75250","1440","30489","31465","75250","75652","NA","74718","Fraction component detection task","37","17738","39","yes","1280"
"95","95","456.125","456.125","#808080","no","legacy","legacy","legacy","0","uniform","1","undefined","undefined","undefined","1","a","0","0","0","39","0","0","39","39","0","0","0","39","39","0","39","Thu Apr 26 08:56:32 2018","#757575","low","2","The main experiment item","yes","","experiment.osexp","/Users/tom/github/sft-fraction/procedure","no","mono","no","24","no","white","no","yes","800","legacy","39","39","0","/Users/tom/github/sft-fraction/results/data/subject-1b.csv","legacy","#757575","low","4","Jazzy James","3.1.9","0","a","NA","space","space","a","a","NA","507","NA","29031","958","838","507","NA","2","legacy","1024","2","48000","-16","experiment","1","odd","absent","32320","32320","NA","59136","1416","32305","75739","76255","1440","30489","31465","76255","76764","NA","75718","Fraction component detection task","38","18245","40","yes","1280"
"95.1219512195","95.1219512195","454.390243902","454.390243902","#808080","no","legacy","legacy","legacy","0","uniform","1","undefined","undefined","undefined","1","a","0","0","0","40","0","0","40","40","0","0","0","40","40","0","40","Thu Apr 26 08:56:32 2018","#757575","low","3","The main experiment item","yes","","experiment.osexp","/Users/tom/github/sft-fraction/procedure","no","mono","no","24","no","white","no","yes","800","legacy","40","40","0","/Users/tom/github/sft-fraction/results/data/subject-1b.csv","legacy","#000000","high","3","Jazzy James","3.1.9","0","a","NA","space","space","a","a","NA","385","NA","29031","958","838","385","NA","2","legacy","1024","2","48000","-16","experiment","1","odd","absent","32320","32320","NA","59136","1416","32305","76844","77360","1440","30489","31465","77361","77748","NA","76829","Fraction component detection task","39","18630","41","yes","1280"
"95.2380952381","95.2380952381","456.452380952","456.452380952","#808080","no","legacy","legacy","legacy","0","uniform","1","undefined","undefined","undefined","1","l","0","0","0","41","0","0","41","41","0","0","0","41","41","0","41","Thu Apr 26 08:56:32 2018","#757575","low","4","The main experiment item","yes","","experiment.osexp","/Users/tom/github/sft-fraction/procedure","no","mono","no","24","no","white","no","yes","800","legacy","41","41","0","/Users/tom/github/sft-fraction/results/data/subject-1b.csv","legacy","#757575","low","7","Jazzy James","3.1.9","0","l","NA","space","space","a","l","NA","541","NA","29031","958","838","541","NA","2","legacy","1024","2","48000","-16","experiment","1","odd","present","32320","32320","NA","59136","1416","32305","77835","78357","1440","30489","31465","78357","78900","NA","77816","Fraction component detection task","40","19171","42","yes","1280"
"95.3488372093","95.3488372093","458.372093023","458.372093023","#808080","no","legacy","legacy","legacy","0","uniform","1","undefined","undefined","undefined","1","l","0","0","0","42","0","0","42","42","0","0","0","42","42","0","42","Thu Apr 26 08:56:32 2018","#757575","low","8","The main experiment item","yes","","experiment.osexp","/Users/tom/github/sft-fraction/procedure","no","mono","no","24","no","white","no","yes","800","legacy","42","42","0","/Users/tom/github/sft-fraction/results/data/subject-1b.csv","legacy","#000000","high","4","Jazzy James","3.1.9","0","l","NA","space","space","a","l","NA","539","NA","29031","958","838","539","NA","2","legacy","1024","2","48000","-16","experiment","1","odd","present","32320","32320","NA","59136","1416","32305","78982","79502","1440","30489","31465","79503","80044","NA","78967","Fraction component detection task","41","19710","43","yes","1280"
"95.4545454545","95.4545454545","458.227272727","458.227272727","#808080","no","legacy","legacy","legacy","0","uniform","1","undefined","undefined","undefined","1","a","0","0","0","43","0","0","43","43","0","0","0","43","43","0","43","Thu Apr 26 08:56:32 2018","#757575","low","4","The main experiment item","yes","","experiment.osexp","/Users/tom/github/sft-fraction/procedure","no","mono","no","24","no","white","no","yes","800","legacy","43","43","0","/Users/tom/github/sft-fraction/results/data/subject-1b.csv","legacy","#000000","high","3","Jazzy James","3.1.9","0","a","NA","space","space","a","a","NA","452","NA","29031","958","838","452","NA","2","legacy","1024","2","48000","-16","experiment","1","odd","absent","32320","32320","NA","59136","1416","32305","80129","80646","1440","30489","31465","80646","81100","NA","80110","Fraction component detection task","42","20162","44","yes","1280"
"95.5555555556","95.5555555556","459.6","459.6","#808080","no","legacy","legacy","legacy","0","uniform","1","undefined","undefined","undefined","1","a","0","0","0","44","0","0","44","44","0","0","0","44","44","0","44","Thu Apr 26 08:56:32 2018","#000000","high","4","The main experiment item","yes","","experiment.osexp","/Users/tom/github/sft-fraction/procedure","no","mono","no","24","no","white","no","yes","800","legacy","44","44","0","/Users/tom/github/sft-fraction/results/data/subject-1b.csv","legacy","#757575","low","2","Jazzy James","3.1.9","0","a","NA","space","space","a","a","NA","520","NA","29031","958","838","520","NA","2","legacy","1024","2","48000","-16","experiment","1","odd","absent","32320","32320","NA","59136","1416","32305","81181","81698","1440","30489","31465","81698","82220","NA","81165","Fraction component detection task","43","20682","45","yes","1280"
"95.652173913","95.652173913","460.260869565","460.260869565","#808080","no","legacy","legacy","legacy","0","uniform","1","undefined","undefined","undefined","1","l","0","0","0","45","0","0","45","45","0","0","0","45","45","0","45","Thu Apr 26 08:56:32 2018","#757575","low","6","The main experiment item","yes","","experiment.osexp","/Users/tom/github/sft-fraction/procedure","no","mono","no","24","no","white","no","yes","800","legacy","45","45","0","/Users/tom/github/sft-fraction/results/data/subject-1b.csv","legacy","#757575","low","2","Jazzy James","3.1.9","0","l","NA","space","space","a","l","NA","490","NA","29031","958","838","490","NA","2","legacy","1024","2","48000","-16","experiment","1","odd","present","32320","32320","NA","59136","1416","32305","82314","82832","1440","30489","31465","82832","83324","NA","82291","Fraction component detection task","44","21172","46","yes","1280"
"95.7446808511","95.7446808511","462.425531915","462.425531915","#808080","no","legacy","legacy","legacy","0","uniform","1","undefined","undefined","undefined","1","l","0","0","0","46","0","0","46","46","0","0","0","46","46","0","46","Thu Apr 26 08:56:32 2018","#757575","low","8","The main experiment item","yes","","experiment.osexp","/Users/tom/github/sft-fraction/procedure","no","mono","no","24","no","white","no","yes","800","legacy","46","46","0","/Users/tom/github/sft-fraction/results/data/subject-1b.csv","legacy","#000000","high","3","Jazzy James","3.1.9","0","l","NA","space","space","a","l","NA","562","NA","29031","958","838","562","NA","2","legacy","1024","2","48000","-16","experiment","1","odd","present","32320","32320","NA","59136","1416","32305","83401","83920","1440","30489","31465","83920","84484","NA","83386","Fraction component detection task","45","21734","47","yes","1280"
"95.8333333333","95.8333333333","461.791666667","461.791666667","#808080","no","legacy","legacy","legacy","0","uniform","1","undefined","undefined","undefined","1","l","0","0","0","47","0","0","47","47","0","0","0","47","47","0","47","Thu Apr 26 08:56:32 2018","#757575","low","3","The main experiment item","yes","","experiment.osexp","/Users/tom/github/sft-fraction/procedure","no","mono","no","24","no","white","no","yes","800","legacy","47","47","0","/Users/tom/github/sft-fraction/results/data/subject-1b.csv","legacy","#757575","low","8","Jazzy James","3.1.9","0","l","NA","space","space","a","l","NA","432","NA","29031","958","838","432","NA","2","legacy","1024","2","48000","-16","experiment","1","odd","present","32320","32320","NA","59136","1416","32305","84574","85090","1440","30489","31465","85091","85525","NA","84558","Fraction component detection task","46","22166","48","yes","1280"
"95.9183673469","95.9183673469","460.285714286","460.285714286","#808080","no","legacy","legacy","legacy","0","uniform","1","undefined","undefined","undefined","1","a","0","0","0","48","0","0","48","48","0","0","0","48","48","0","48","Thu Apr 26 08:56:32 2018","#757575","low","4","The main experiment item","yes","","experiment.osexp","/Users/tom/github/sft-fraction/procedure","no","mono","no","24","no","white","no","yes","800","legacy","48","48","0","/Users/tom/github/sft-fraction/results/data/subject-1b.csv","legacy","#000000","high","2","Jazzy James","3.1.9","0","a","NA","space","space","a","a","NA","388","NA","29031","958","838","388","NA","2","legacy","1024","2","48000","-16","experiment","1","odd","absent","32320","32320","NA","59136","1416","32305","85607","86127","1440","30489","31465","86127","86519","NA","85591","Fraction component detection task","47","22554","49","yes","1280"
"96","96","460.1","460.1","#808080","no","legacy","legacy","legacy","0","uniform","1","undefined","undefined","undefined","1","l","0","0","0","49","0","0","49","49","0","0","0","49","49","0","49","Thu Apr 26 08:56:32 2018","#000000","high","8","The main experiment item","yes","","experiment.osexp","/Users/tom/github/sft-fraction/procedure","no","mono","no","24","no","white","no","yes","800","legacy","49","49","0","/Users/tom/github/sft-fraction/results/data/subject-1b.csv","legacy","#000000","high","6","Jazzy James","3.1.9","0","l","NA","space","space","a","l","NA","451","NA","29031","958","838","451","NA","2","legacy","1024","2","48000","-16","experiment","1","odd","present","32320","32320","NA","59136","1416","32305","86600","87120","1440","30489","31465","87120","87573","NA","86584","Fraction component detection task","48","23005","50","yes","1280"
"96.0784313725","96.0784313725","460.078431373","460.078431373","#808080","no","legacy","legacy","legacy","0","uniform","1","undefined","undefined","undefined","1","l","0","0","0","50","0","0","50","50","0","0","0","50","50","0","50","Thu Apr 26 08:56:32 2018","#757575","low","3","The main experiment item","yes","","experiment.osexp","/Users/tom/github/sft-fraction/procedure","no","mono","no","24","no","white","no","yes","800","legacy","50","50","0","/Users/tom/github/sft-fraction/results/data/subject-1b.csv","legacy","#757575","low","7","Jazzy James","3.1.9","0","l","NA","space","space","a","l","NA","459","NA","29031","958","838","459","NA","2","legacy","1024","2","48000","-16","experiment","1","odd","present","32320","32320","NA","59136","1416","32305","87659","88176","1440","30489","31465","88176","88637","NA","87638","Fraction component detection task","49","23464","51","yes","1280"
"96.1538461538","96.1538461538","463.096153846","463.096153846","#808080","no","legacy","legacy","legacy","0","uniform","1","undefined","undefined","undefined","1","l","0","0","0","51","0","0","51","51","0","0","0","51","51","0","51","Thu Apr 26 08:56:32 2018","#757575","low","2","The main experiment item","yes","","experiment.osexp","/Users/tom/github/sft-fraction/procedure","no","mono","no","24","no","white","no","yes","800","legacy","51","51","0","/Users/tom/github/sft-fraction/results/data/subject-1b.csv","legacy","#757575","low","7","Jazzy James","3.1.9","0","l","NA","space","space","a","l","NA","617","NA","29031","958","838","617","NA","2","legacy","1024","2","48000","-16","experiment","1","odd","present","32320","32320","NA","59136","1416","32305","88724","89241","1440","30489","31465","89242","89861","NA","88703","Fraction component detection task","50","24081","52","yes","1280"
"96.2264150943","96.2264150943","463.754716981","463.754716981","#808080","no","legacy","legacy","legacy","0","uniform","1","undefined","undefined","undefined","1","a","0","0","0","52","0","0","52","52","0","0","0","52","52","0","52","Thu Apr 26 08:56:32 2018","#757575","low","2","The main experiment item","yes","","experiment.osexp","/Users/tom/github/sft-fraction/procedure","no","mono","no","24","no","white","no","yes","800","legacy","52","52","0","/Users/tom/github/sft-fraction/results/data/subject-1b.csv","legacy","#757575","low","3","Jazzy James","3.1.9","0","a","NA","space","space","a","a","NA","498","NA","29031","958","838","498","NA","2","legacy","1024","2","48000","-16","experiment","1","odd","absent","32320","32320","NA","59136","1416","32305","89949","90465","1440","30489","31465","90465","90965","NA","89931","Fraction component detection task","51","24579","53","yes","1280"
"96.2962962963","96.2962962963","463.222222222","463.222222222","#808080","no","legacy","legacy","legacy","0","uniform","1","undefined","undefined","undefined","1","l","0","0","0","53","0","0","53","53","0","0","0","53","53","0","53","Thu Apr 26 08:56:32 2018","#000000","high","7","The main experiment item","yes","","experiment.osexp","/Users/tom/github/sft-fraction/procedure","no","mono","no","24","no","white","no","yes","800","legacy","53","53","0","/Users/tom/github/sft-fraction/results/data/subject-1b.csv","legacy","#000000","high","7","Jazzy James","3.1.9","0","l","NA","space","space","a","l","NA","435","NA","29031","958","838","435","NA","2","legacy","1024","2","48000","-16","experiment","1","odd","present","32320","32320","NA","59136","1416","32305","91049","91567","1440","30489","31465","91567","92004","NA","91029","Fraction component detection task","52","25014","54","yes","1280"
"96.3636363636","96.3636363636","463.381818182","463.381818182","#808080","no","legacy","legacy","legacy","0","uniform","1","undefined","undefined","undefined","1","l","0","0","0","54","0","0","54","54","0","0","0","54","54","0","54","Thu Apr 26 08:56:32 2018","#000000","high","8","The main experiment item","yes","","experiment.osexp","/Users/tom/github/sft-fraction/procedure","no","mono","no","24","no","white","no","yes","800","legacy","54","54","0","/Users/tom/github/sft-fraction/results/data/subject-1b.csv","legacy","#757575","low","2","Jazzy James","3.1.9","0","l","NA","space","space","a","l","NA","472","NA","29031","958","838","472","NA","2","legacy","1024","2","48000","-16","experiment","1","odd","present","32320","32320","NA","59136","1416","32305","92085","92602","1440","30489","31465","92602","93076","NA","92069","Fraction component detection task","53","25486","55","yes","1280"
"96.4285714286","96.4285714286","462.803571429","462.803571429","#808080","no","legacy","legacy","legacy","0","uniform","1","undefined","undefined","undefined","1","l","0","0","0","55","0","0","55","55","0","0","0","55","55","0","55","Thu Apr 26 08:56:32 2018","#000000","high","6","The main experiment item","yes","","experiment.osexp","/Users/tom/github/sft-fraction/procedure","no","mono","no","24","no","white","no","yes","800","legacy","55","55","0","/Users/tom/github/sft-fraction/results/data/subject-1b.csv","legacy","#000000","high","6","Jazzy James","3.1.9","0","l","NA","space","space","a","l","NA","431","NA","29031","958","838","431","NA","2","legacy","1024","2","48000","-16","experiment","1","odd","present","32320","32320","NA","59136","1416","32305","93158","93675","1440","30489","31465","93675","94109","NA","93143","Fraction component detection task","54","25917","56","yes","1280"
"96.4912280702","96.4912280702","464.368421053","464.368421053","#808080","no","legacy","legacy","legacy","0","uniform","1","undefined","undefined","undefined","1","a","0","0","0","56","0","0","56","56","0","0","0","56","56","0","56","Thu Apr 26 08:56:32 2018","#757575","low","2","The main experiment item","yes","","experiment.osexp","/Users/tom/github/sft-fraction/procedure","no","mono","no","24","no","white","no","yes","800","legacy","56","56","0","/Users/tom/github/sft-fraction/results/data/subject-1b.csv","legacy","#000000","high","4","Jazzy James","3.1.9","0","a","NA","space","space","a","a","NA","552","NA","29031","958","838","552","NA","2","legacy","1024","2","48000","-16","experiment","1","odd","absent","32320","32320","NA","59136","1416","32305","94192","94714","1440","30489","31465","94714","95268","NA","94174","Fraction component detection task","55","26469","57","yes","1280"
"96.5517241379","96.5517241379","463.982758621","463.982758621","#808080","no","legacy","legacy","legacy","0","uniform","1","undefined","undefined","undefined","1","l","0","0","0","57","0","0","57","57","0","0","0","57","57","0","57","Thu Apr 26 08:56:32 2018","#000000","high","8","The main experiment item","yes","","experiment.osexp","/Users/tom/github/sft-fraction/procedure","no","mono","no","24","no","white","no","yes","800","legacy","57","57","0","/Users/tom/github/sft-fraction/results/data/subject-1b.csv","legacy","#757575","low","3","Jazzy James","3.1.9","0","l","NA","space","space","a","l","NA","442","NA","29031","958","838","442","NA","2","legacy","1024","2","48000","-16","experiment","1","odd","present","32320","32320","NA","59136","1416","32305","95355","95872","1440","30489","31465","95872","96317","NA","95338","Fraction component detection task","56","26911","58","yes","1280"
"96.6101694915","96.6101694915","464.237288136","464.237288136","#808080","no","legacy","legacy","legacy","0","uniform","1","undefined","undefined","undefined","1","l","0","0","0","58","0","0","58","58","0","0","0","58","58","0","58","Thu Apr 26 08:56:32 2018","#000000","high","2","The main experiment item","yes","","experiment.osexp","/Users/tom/github/sft-fraction/procedure","no","mono","no","24","no","white","no","yes","800","legacy","58","58","0","/Users/tom/github/sft-fraction/results/data/subject-1b.csv","legacy","#000000","high","7","Jazzy James","3.1.9","0","l","NA","space","space","a","l","NA","479","NA","29031","958","838","479","NA","2","legacy","1024","2","48000","-16","experiment","1","odd","present","32320","32320","NA","59136","1416","32305","96399","96915","1440","30489","31465","96916","97397","NA","96383","Fraction component detection task","57","27390","59","yes","1280"
"96.6666666667","96.6666666667","462.633333333","462.633333333","#808080","no","legacy","legacy","legacy","0","uniform","1","undefined","undefined","undefined","1","a","0","0","0","59","0","0","59","59","0","0","0","59","59","0","59","Thu Apr 26 08:56:32 2018","#000000","high","2","The main experiment item","yes","","experiment.osexp","/Users/tom/github/sft-fraction/procedure","no","mono","no","24","no","white","no","yes","800","legacy","59","59","0","/Users/tom/github/sft-fraction/results/data/subject-1b.csv","legacy","#757575","low","2","Jazzy James","3.1.9","0","a","NA","space","space","a","a","NA","368","NA","29031","958","838","368","NA","2","legacy","1024","2","48000","-16","experiment","1","odd","absent","32320","32320","NA","59136","1416","32305","97477","97993","1440","30489","31465","97994","98365","NA","97461","Fraction component detection task","58","27758","60","yes","1280"
"96.7213114754","96.7213114754","461.754098361","461.754098361","#808080","no","legacy","legacy","legacy","0","uniform","1","undefined","undefined","undefined","1","a","0","0","0","60","0","0","60","60","0","0","0","60","60","0","60","Thu Apr 26 08:56:32 2018","#000000","high","2","The main experiment item","yes","","experiment.osexp","/Users/tom/github/sft-fraction/procedure","no","mono","no","24","no","white","no","yes","800","legacy","60","60","0","/Users/tom/github/sft-fraction/results/data/subject-1b.csv","legacy","#000000","high","4","Jazzy James","3.1.9","0","a","NA","space","space","a","a","NA","409","NA","29031","958","838","409","NA","2","legacy","1024","2","48000","-16","experiment","1","odd","absent","32320","32320","NA","59136","1416","32305","98450","98968","1440","30489","31465","98969","99381","NA","98432","Fraction component detection task","59","28167","61","yes","1280"
"96.7741935484","96.7741935484","461.983870968","461.983870968","#808080","no","legacy","legacy","legacy","0","uniform","1","undefined","undefined","undefined","1","l","0","0","0","61","0","0","61","61","0","0","0","61","61","0","61","Thu Apr 26 08:56:32 2018","#000000","high","6","The main experiment item","yes","","experiment.osexp","/Users/tom/github/sft-fraction/procedure","no","mono","no","24","no","white","no","yes","800","legacy","61","61","0","/Users/tom/github/sft-fraction/results/data/subject-1b.csv","legacy","#757575","low","2","Jazzy James","3.1.9","0","l","NA","space","space","a","l","NA","476","NA","29031","958","838","476","NA","2","legacy","1024","2","48000","-16","experiment","1","odd","present","32320","32320","NA","59136","1416","32305","99470","99991","1440","30489","31465","99991","100469","NA","99454","Fraction component detection task","60","28643","62","yes","1280"
"96.8253968254","96.8253968254","462.873015873","462.873015873","#808080","no","legacy","legacy","legacy","0","uniform","1","undefined","undefined","undefined","1","l","0","0","0","62","0","0","62","62","0","0","0","62","62","0","62","Thu Apr 26 08:56:32 2018","#000000","high","8","The main experiment item","yes","","experiment.osexp","/Users/tom/github/sft-fraction/procedure","no","mono","no","24","no","white","no","yes","800","legacy","62","62","0","/Users/tom/github/sft-fraction/results/data/subject-1b.csv","legacy","#757575","low","4","Jazzy James","3.1.9","0","l","NA","space","space","a","l","NA","518","NA","29031","958","838","518","NA","2","legacy","1024","2","48000","-16","experiment","1","odd","present","32320","32320","NA","59136","1416","32305","100561","101078","1440","30489","31465","101078","101598","NA","100543","Fraction component detection task","61","29161","63","yes","1280"
"96.875","96.875","465.21875","465.21875","#808080","no","legacy","legacy","legacy","0","uniform","1","undefined","undefined","undefined","1","l","0","0","0","63","0","0","63","63","0","0","0","63","63","0","63","Thu Apr 26 08:56:32 2018","#757575","low","4","The main experiment item","yes","","experiment.osexp","/Users/tom/github/sft-fraction/procedure","no","mono","no","24","no","white","no","yes","800","legacy","63","63","0","/Users/tom/github/sft-fraction/results/data/subject-1b.csv","legacy","#757575","low","8","Jazzy James","3.1.9","0","l","NA","space","space","a","l","NA","613","NA","29031","958","838","613","NA","2","legacy","1024","2","48000","-16","experiment","1","odd","present","32320","32320","NA","59136","1416","32305","101687","102206","1440","30489","31465","102207","102822","NA","101667","Fraction component detection task","62","29774","64","yes","1280"
"96.9230769231","96.9230769231","465.815384615","465.815384615","#808080","no","legacy","legacy","legacy","0","uniform","1","undefined","undefined","undefined","1","a","0","0","0","64","0","0","64","64","0","0","0","64","64","0","64","Thu Apr 26 08:56:32 2018","#000000","high","3","The main experiment item","yes","","experiment.osexp","/Users/tom/github/sft-fraction/procedure","no","mono","no","24","no","white","no","yes","800","legacy","64","64","0","/Users/tom/github/sft-fraction/results/data/subject-1b.csv","legacy","#757575","low","2","Jazzy James","3.1.9","0","a","NA","space","space","a","a","NA","504","NA","29031","958","838","504","NA","2","legacy","1024","2","48000","-16","experiment","1","odd","absent","32320","32320","NA","59136","1416","32305","102908","103427","1440","30489","31465","103428","103934","NA","102887","Fraction component detection task","63","30278","65","yes","1280"
"96.9696969697","96.9696969697","464.833333333","464.833333333","#808080","no","legacy","legacy","legacy","0","uniform","1","undefined","undefined","undefined","1","a","0","0","0","65","0","0","65","65","0","0","0","65","65","0","65","Thu Apr 26 08:56:32 2018","#757575","low","3","The main experiment item","yes","","experiment.osexp","/Users/tom/github/sft-fraction/procedure","no","mono","no","24","no","white","no","yes","800","legacy","65","65","0","/Users/tom/github/sft-fraction/results/data/subject-1b.csv","legacy","#757575","low","3","Jazzy James","3.1.9","0","a","NA","space","space","a","a","NA","401","NA","29031","958","838","401","NA","2","legacy","1024","2","48000","-16","experiment","1","odd","absent","32320","32320","NA","59136","1416","32305","104013","104531","1440","30489","31465","104531","104934","NA","103999","Fraction component detection task","64","30679","66","yes","1280"
"97.0149253731","97.0149253731","464.626865672","464.626865672","#808080","no","legacy","legacy","legacy","0","uniform","1","undefined","undefined","undefined","1","a","0","0","0","66","0","0","66","66","0","0","0","66","66","0","66","Thu Apr 26 08:56:32 2018","#000000","high","2","The main experiment item","yes","","experiment.osexp","/Users/tom/github/sft-fraction/procedure","no","mono","no","24","no","white","no","yes","800","legacy","66","66","0","/Users/tom/github/sft-fraction/results/data/subject-1b.csv","legacy","#757575","low","3","Jazzy James","3.1.9","0","a","NA","space","space","a","a","NA","451","NA","29031","958","838","451","NA","2","legacy","1024","2","48000","-16","experiment","1","odd","absent","32320","32320","NA","59136","1416","32305","105013","105536","1440","30489","31465","105537","105991","NA","104998","Fraction component detection task","65","31130","67","yes","1280"
"97.0588235294","97.0588235294","466.205882353","466.205882353","#808080","no","legacy","legacy","legacy","0","uniform","1","undefined","undefined","undefined","1","l","0","0","0","67","0","0","67","67","0","0","0","67","67","0","67","Thu Apr 26 08:56:32 2018","#757575","low","7","The main experiment item","yes","","experiment.osexp","/Users/tom/github/sft-fraction/procedure","no","mono","no","24","no","white","no","yes","800","legacy","67","67","0","/Users/tom/github/sft-fraction/results/data/subject-1b.csv","legacy","#757575","low","8","Jazzy James","3.1.9","0","l","NA","space","space","a","l","NA","572","NA","29031","958","838","572","NA","2","legacy","1024","2","48000","-16","experiment","1","odd","present","32320","32320","NA","59136","1416","32305","106073","106591","1440","30489","31465","106591","107165","NA","106057","Fraction component detection task","66","31702","68","yes","1280"
"97.1014492754","97.1014492754","468.782608696","468.782608696","#808080","no","legacy","legacy","legacy","0","uniform","1","undefined","undefined","undefined","1","l","0","0","0","68","0","0","68","68","0","0","0","68","68","0","68","Thu Apr 26 08:56:32 2018","#000000","high","6","The main experiment item","yes","","experiment.osexp","/Users/tom/github/sft-fraction/procedure","no","mono","no","24","no","white","no","yes","800","legacy","68","68","0","/Users/tom/github/sft-fraction/results/data/subject-1b.csv","legacy","#757575","low","4","Jazzy James","3.1.9","0","l","NA","space","space","a","l","NA","644","NA","29031","958","838","644","NA","2","legacy","1024","2","48000","-16","experiment","1","odd","present","32320","32320","NA","59136","1416","32305","107251","107767","1440","30489","31465","107767","108413","NA","107230","Fraction component detection task","67","32346","69","yes","1280"
"97.1428571429","97.1428571429","467.742857143","467.742857143","#808080","no","legacy","legacy","legacy","0","uniform","1","undefined","undefined","undefined","1","a","0","0","0","69","0","0","69","69","0","0","0","69","69","0","69","Thu Apr 26 08:56:32 2018","#000000","high","2","The main experiment item","yes","","experiment.osexp","/Users/tom/github/sft-fraction/procedure","no","mono","no","24","no","white","no","yes","800","legacy","69","69","0","/Users/tom/github/sft-fraction/results/data/subject-1b.csv","legacy","#000000","high","2","Jazzy James","3.1.9","0","a","NA","space","space","a","a","NA","396","NA","29031","958","838","396","NA","2","legacy","1024","2","48000","-16","experiment","1","odd","absent","32320","32320","NA","59136","1416","32305","108499","109015","1440","30489","31465","109015","109414","NA","108483","Fraction component detection task","68","32742","70","yes","1280"
"97.1830985915","97.1830985915","467.788732394","467.788732394","#808080","no","legacy","legacy","legacy","0","uniform","1","undefined","undefined","undefined","1","a","0","0","0","70","0","0","70","70","0","0","0","70","70","0","70","Thu Apr 26 08:56:32 2018","#757575","low","3","The main experiment item","yes","","experiment.osexp","/Users/tom/github/sft-fraction/procedure","no","mono","no","24","no","white","no","yes","800","legacy","70","70","0","/Users/tom/github/sft-fraction/results/data/subject-1b.csv","legacy","#000000","high","2","Jazzy James","3.1.9","0","a","NA","space","space","a","a","NA","471","NA","29031","958","838","471","NA","2","legacy","1024","2","48000","-16","experiment","1","odd","absent","32320","32320","NA","59136","1416","32305","109503","110020","1440","30489","31465","110020","110493","NA","109482","Fraction component detection task","69","33213","71","yes","1280"
"97.2222222222","97.2222222222","473.652777778","473.652777778","#808080","no","legacy","legacy","legacy","0","uniform","1","undefined","undefined","undefined","1","a","0","0","0","71","0","0","71","71","0","0","0","71","71","0","71","Thu Apr 26 08:56:32 2018","#000000","high","3","The main experiment item","yes","","experiment.osexp","/Users/tom/github/sft-fraction/procedure","no","mono","no","24","no","white","no","yes","800","legacy","71","71","0","/Users/tom/github/sft-fraction/results/data/subject-1b.csv","legacy","#000000","high","4","Jazzy James","3.1.9","0","a","NA","space","space","a","a","NA","890","NA","29031","958","838","890","NA","2","legacy","1024","2","48000","-16","experiment","1","odd","absent","32320","32320","NA","59136","1416","32305","110573","111090","1440","30489","31465","111090","111983","NA","110558","Fraction component detection task","70","34103","72","yes","1280"
"97.2602739726","97.2602739726","473.835616438","473.835616438","#808080","no","legacy","legacy","legacy","0","uniform","1","undefined","undefined","undefined","1","l","0","0","0","72","0","0","72","72","0","0","0","72","72","0","72","Thu Apr 26 08:56:32 2018","#757575","low","4","The main experiment item","yes","","experiment.osexp","/Users/tom/github/sft-fraction/procedure","no","mono","no","24","no","white","no","yes","800","legacy","72","72","0","/Users/tom/github/sft-fraction/results/data/subject-1b.csv","legacy","#000000","high","8","Jazzy James","3.1.9","0","l","NA","space","space","a","l","NA","487","NA","29031","958","838","487","NA","2","legacy","1024","2","48000","-16","experiment","1","odd","present","32320","32320","NA","59136","1416","32305","112068","112588","1440","30489","31465","112588","113078","NA","112047","Fraction component detection task","71","34590","73","yes","1280"
"97.2972972973","97.2972972973","473.337837838","473.337837838","#808080","no","legacy","legacy","legacy","0","uniform","1","undefined","undefined","undefined","1","l","0","0","0","73","0","0","73","73","0","0","0","73","73","0","73","Thu Apr 26 08:56:32 2018","#000000","high","3","The main experiment item","yes","","experiment.osexp","/Users/tom/github/sft-fraction/procedure","no","mono","no","24","no","white","no","yes","800","legacy","73","73","0","/Users/tom/github/sft-fraction/results/data/subject-1b.csv","legacy","#000000","high","6","Jazzy James","3.1.9","0","l","NA","space","space","a","l","NA","437","NA","29031","958","838","437","NA","2","legacy","1024","2","48000","-16","experiment","1","odd","present","32320","32320","NA","59136","1416","32305","113167","113686","1440","30489","31465","113686","114126","NA","113147","Fraction component detection task","72","35027","74","yes","1280"
"97.3333333333","97.3333333333","472.346666667","472.346666667","#808080","no","legacy","legacy","legacy","0","uniform","1","undefined","undefined","undefined","1","l","0","0","0","74","0","0","74","74","0","0","0","74","74","0","74","Thu Apr 26 08:56:32 2018","#757575","low","7","The main experiment item","yes","","experiment.osexp","/Users/tom/github/sft-fraction/procedure","no","mono","no","24","no","white","no","yes","800","legacy","74","74","0","/Users/tom/github/sft-fraction/results/data/subject-1b.csv","legacy","#757575","low","6","Jazzy James","3.1.9","0","l","NA","space","space","a","l","NA","399","NA","29031","958","838","399","NA","2","legacy","1024","2","48000","-16","experiment","1","odd","present","32320","32320","NA","59136","1416","32305","114207","114723","1440","30489","31465","114724","115126","NA","114190","Fraction component detection task","73","35426","75","yes","1280"
"97.3684210526","97.3684210526","471.315789474","471.315789474","#808080","no","legacy","legacy","legacy","0","uniform","1","undefined","undefined","undefined","1","a","0","0","0","75","0","0","75","75","0","0","0","75","75","0","75","Thu Apr 26 08:56:32 2018","#757575","low","2","The main experiment item","yes","","experiment.osexp","/Users/tom/github/sft-fraction/procedure","no","mono","no","24","no","white","no","yes","800","legacy","75","75","0","/Users/tom/github/sft-fraction/results/data/subject-1b.csv","legacy","#757575","low","2","Jazzy James","3.1.9","0","a","NA","space","space","a","a","NA","394","NA","29031","958","838","394","NA","2","legacy","1024","2","48000","-16","experiment","1","odd","absent","32320","32320","NA","59136","1416","32305","115211","115729","1440","30489","31465","115729","116126","NA","115191","Fraction component detection task","74","35820","76","yes","1280"
"97.4025974026","97.4025974026","471.285714286","471.285714286","#808080","no","legacy","legacy","legacy","0","uniform","1","undefined","undefined","undefined","1","a","0","0","0","76","0","0","76","76","0","0","0","76","76","0","76","Thu Apr 26 08:56:32 2018","#000000","high","2","The main experiment item","yes","","experiment.osexp","/Users/tom/github/sft-fraction/procedure","no","mono","no","24","no","white","no","yes","800","legacy","76","76","0","/Users/tom/github/sft-fraction/results/data/subject-1b.csv","legacy","#000000","high","3","Jazzy James","3.1.9","0","a","NA","space","space","a","a","NA","469","NA","29031","958","838","469","NA","2","legacy","1024","2","48000","-16","experiment","1","odd","absent","32320","32320","NA","59136","1416","32305","116209","116726","1440","30489","31465","116726","117198","NA","116193","Fraction component detection task","75","36289","77","yes","1280"
"97.4358974359","97.4358974359","471.051282051","471.051282051","#808080","no","legacy","legacy","legacy","0","uniform","1","undefined","undefined","undefined","1","a","0","0","0","77","0","0","77","77","0","0","0","77","77","0","77","Thu Apr 26 08:56:32 2018","#000000","high","4","The main experiment item","yes","","experiment.osexp","/Users/tom/github/sft-fraction/procedure","no","mono","no","24","no","white","no","yes","800","legacy","77","77","0","/Users/tom/github/sft-fraction/results/data/subject-1b.csv","legacy","#757575","low","2","Jazzy James","3.1.9","0","a","NA","space","space","a","a","NA","453","NA","29031","958","838","453","NA","2","legacy","1024","2","48000","-16","experiment","1","odd","absent","32320","32320","NA","59136","1416","32305","117280","117797","1440","30489","31465","117798","118254","NA","117265","Fraction component detection task","76","36742","78","yes","1280"
"97.4683544304","97.4683544304","470.556962025","470.556962025","#808080","no","legacy","legacy","legacy","0","uniform","1","undefined","undefined","undefined","1","a","0","0","0","78","0","0","78","78","0","0","0","78","78","0","78","Thu Apr 26 08:56:32 2018","#757575","low","3","The main experiment item","yes","","experiment.osexp","/Users/tom/github/sft-fraction/procedure","no","mono","no","24","no","white","no","yes","800","legacy","78","78","0","/Users/tom/github/sft-fraction/results/data/subject-1b.csv","legacy","#000000","high","2","Jazzy James","3.1.9","0","a","NA","space","space","a","a","NA","432","NA","29031","958","838","432","NA","2","legacy","1024","2","48000","-16","experiment","1","odd","absent","32320","32320","NA","59136","1416","32305","118333","118851","1440","30489","31465","118851","119286","NA","118318","Fraction component detection task","77","37174","79","yes","1280"
"97.5","97.5","470.375","470.375","#808080","no","legacy","legacy","legacy","0","uniform","1","undefined","undefined","undefined","1","a","0","0","0","79","0","0","79","79","0","0","0","79","79","0","79","Thu Apr 26 08:56:32 2018","#000000","high","4","The main experiment item","yes","","experiment.osexp","/Users/tom/github/sft-fraction/procedure","no","mono","no","24","no","white","no","yes","800","legacy","79","79","0","/Users/tom/github/sft-fraction/results/data/subject-1b.csv","legacy","#757575","low","4","Jazzy James","3.1.9","0","a","NA","space","space","a","a","NA","456","NA","29031","958","838","456","NA","2","legacy","1024","2","48000","-16","experiment","1","odd","absent","32320","32320","NA","59136","1416","32305","119373","119891","1440","30489","31465","119891","120350","NA","119354","Fraction component detection task","78","37630","80","yes","1280"
"97.5308641975","97.5308641975","470","470","#808080","no","legacy","legacy","legacy","0","uniform","1","undefined","undefined","undefined","1","a","0","0","0","80","0","0","80","80","0","0","0","80","80","0","80","Thu Apr 26 08:56:32 2018","#757575","low","4","The main experiment item","yes","","experiment.osexp","/Users/tom/github/sft-fraction/procedure","no","mono","no","24","no","white","no","yes","800","legacy","80","80","0","/Users/tom/github/sft-fraction/results/data/subject-1b.csv","legacy","#757575","low","2","Jazzy James","3.1.9","0","a","NA","space","space","a","a","NA","440","NA","29031","958","838","440","NA","2","legacy","1024","2","48000","-16","experiment","1","odd","absent","32320","32320","NA","59136","1416","32305","120431","120948","1440","30489","31465","120948","121390","NA","120416","Fraction component detection task","79","38070","81","yes","1280"
"97.5609756098","97.5609756098","468.853658537","468.853658537","#808080","no","legacy","legacy","legacy","0","uniform","1","undefined","undefined","undefined","1","l","0","0","0","81","0","0","81","81","0","0","0","81","81","0","81","Thu Apr 26 08:56:32 2018","#000000","high","8","The main experiment item","yes","","experiment.osexp","/Users/tom/github/sft-fraction/procedure","no","mono","no","24","no","white","no","yes","800","legacy","81","81","0","/Users/tom/github/sft-fraction/results/data/subject-1b.csv","legacy","#757575","low","7","Jazzy James","3.1.9","0","l","NA","space","space","a","l","NA","376","NA","29031","958","838","376","NA","2","legacy","1024","2","48000","-16","experiment","1","odd","present","32320","32320","NA","59136","1416","32305","121471","121988","1440","30489","31465","121988","122366","NA","121456","Fraction component detection task","80","38446","82","yes","1280"
"96.3855421687","96.3855421687","468.024096386","468.024096386","#808080","no","legacy","legacy","legacy","0","uniform","0","undefined","undefined","undefined","0","l","0","0","0","82","0","0","82","82","0","0","0","82","82","0","82","Thu Apr 26 08:56:32 2018","#000000","high","8","The main experiment item","yes","","experiment.osexp","/Users/tom/github/sft-fraction/procedure","no","mono","no","24","no","white","no","yes","800","legacy","82","82","0","/Users/tom/github/sft-fraction/results/data/subject-1b.csv","legacy","#000000","high","2","Jazzy James","3.1.9","0","a","NA","space","space","a","a","NA","400","NA","29031","958","838","400","NA","2","legacy","1024","2","48000","-16","experiment","1","odd","present","32320","32320","NA","59136","1416","32305","122446","122964","1440","30489","31465","122964","123366","NA","122430","Fraction component detection task","80","38846","83","yes","1280"
"96.4285714286","96.4285714286","467.369047619","467.369047619","#808080","no","legacy","legacy","legacy","0","uniform","1","undefined","undefined","undefined","1","a","0","0","0","83","0","0","83","83","0","0","0","83","83","0","83","Thu Apr 26 08:56:32 2018","#000000","high","4","The main experiment item","yes","","experiment.osexp","/Users/tom/github/sft-fraction/procedure","no","mono","no","24","no","white","no","yes","800","legacy","83","83","0","/Users/tom/github/sft-fraction/results/data/subject-1b.csv","legacy","#757575","low","4","Jazzy James","3.1.9","0","a","NA","space","space","a","a","NA","413","NA","29031","958","838","413","NA","2","legacy","1024","2","48000","-16","experiment","1","odd","absent","32320","32320","NA","123385","1416","32305","124474","124991","1440","30489","31465","124991","125406","NA","124456","Fraction component detection task","81","39259","84","yes","1280"
"96.4705882353","96.4705882353","467.529411765","467.529411765","#808080","no","legacy","legacy","legacy","0","uniform","1","undefined","undefined","undefined","1","a","0","0","0","84","0","0","84","84","0","0","0","84","84","0","84","Thu Apr 26 08:56:32 2018","#757575","low","3","The main experiment item","yes","","experiment.osexp","/Users/tom/github/sft-fraction/procedure","no","mono","no","24","no","white","no","yes","800","legacy","84","84","0","/Users/tom/github/sft-fraction/results/data/subject-1b.csv","legacy","#757575","low","4","Jazzy James","3.1.9","0","a","NA","space","space","a","a","NA","481","NA","29031","958","838","481","NA","2","legacy","1024","2","48000","-16","experiment","1","odd","absent","32320","32320","NA","123385","1416","32305","125487","126003","1440","30489","31465","126003","126487","NA","125471","Fraction component detection task","82","39740","85","yes","1280"
"95.3488372093","95.3488372093","467.337209302","467.337209302","#808080","no","legacy","legacy","legacy","0","uniform","0","undefined","undefined","undefined","0","a","0","0","0","85","0","0","85","85","0","0","0","85","85","0","85","Thu Apr 26 08:56:32 2018","#000000","high","3","The main experiment item","yes","","experiment.osexp","/Users/tom/github/sft-fraction/procedure","no","mono","no","24","no","white","no","yes","800","legacy","85","85","0","/Users/tom/github/sft-fraction/results/data/subject-1b.csv","legacy","#000000","high","2","Jazzy James","3.1.9","0","l","NA","space","space","a","l","NA","451","NA","29031","958","838","451","NA","2","legacy","1024","2","48000","-16","experiment","1","odd","absent","32320","32320","NA","123385","1416","32305","126579","127098","1440","30489","31465","127098","127552","NA","126556","Fraction component detection task","82","40191","86","yes","1280"
"95.4022988506","95.4022988506","467.333333333","467.333333333","#808080","no","legacy","legacy","legacy","0","uniform","1","undefined","undefined","undefined","1","l","0","0","0","86","0","0","86","86","0","0","0","86","86","0","86","Thu Apr 26 08:56:32 2018","#757575","low","4","The main experiment item","yes","","experiment.osexp","/Users/tom/github/sft-fraction/procedure","no","mono","no","24","no","white","no","yes","800","legacy","86","86","0","/Users/tom/github/sft-fraction/results/data/subject-1b.csv","legacy","#000000","high","7","Jazzy James","3.1.9","0","l","NA","space","space","a","l","NA","467","NA","29031","958","838","467","NA","2","legacy","1024","2","48000","-16","experiment","1","odd","present","32320","32320","NA","127574","1416","32305","128660","129178","1440","30489","31465","129178","129647","NA","128642","Fraction component detection task","83","40658","87","yes","1280"
"95.4545454545","95.4545454545","468.113636364","468.113636364","#808080","no","legacy","legacy","legacy","0","uniform","1","undefined","undefined","undefined","1","l","0","0","0","87","0","0","87","87","0","0","0","87","87","0","87","Thu Apr 26 08:56:32 2018","#757575","low","7","The main experiment item","yes","","experiment.osexp","/Users/tom/github/sft-fraction/procedure","no","mono","no","24","no","white","no","yes","800","legacy","87","87","0","/Users/tom/github/sft-fraction/results/data/subject-1b.csv","legacy","#757575","low","4","Jazzy James","3.1.9","0","l","NA","space","space","a","l","NA","536","NA","29031","958","838","536","NA","2","legacy","1024","2","48000","-16","experiment","1","odd","present","32320","32320","NA","127574","1416","32305","129728","130245","1440","30489","31465","130245","130784","NA","129713","Fraction component detection task","84","41194","88","yes","1280"
"95.5056179775","95.5056179775","468.213483146","468.213483146","#808080","no","legacy","legacy","legacy","0","uniform","1","undefined","undefined","undefined","1","l","0","0","0","88","0","0","88","88","0","0","0","88","88","0","88","Thu Apr 26 08:56:32 2018","#757575","low","8","The main experiment item","yes","","experiment.osexp","/Users/tom/github/sft-fraction/procedure","no","mono","no","24","no","white","no","yes","800","legacy","88","88","0","/Users/tom/github/sft-fraction/results/data/subject-1b.csv","legacy","#000000","high","8","Jazzy James","3.1.9","0","l","NA","space","space","a","l","NA","477","NA","29031","958","838","477","NA","2","legacy","1024","2","48000","-16","experiment","1","odd","present","32320","32320","NA","127574","1416","32305","130868","131384","1440","30489","31465","131384","131864","NA","130852","Fraction component detection task","85","41671","89","yes","1280"
"95.5555555556","95.5555555556","471.055555556","471.055555556","#808080","no","legacy","legacy","legacy","0","uniform","1","undefined","undefined","undefined","1","l","0","0","0","89","0","0","89","89","0","0","0","89","89","0","89","Thu Apr 26 08:56:32 2018","#757575","low","7","The main experiment item","yes","","experiment.osexp","/Users/tom/github/sft-fraction/procedure","no","mono","no","24","no","white","no","yes","800","legacy","89","89","0","/Users/tom/github/sft-fraction/results/data/subject-1b.csv","legacy","#000000","high","2","Jazzy James","3.1.9","0","l","NA","space","space","a","l","NA","724","NA","29031","958","838","724","NA","2","legacy","1024","2","48000","-16","experiment","1","odd","present","32320","32320","NA","127574","1416","32305","131947","132463","1440","30489","31465","132464","133191","NA","131931","Fraction component detection task","86","42395","90","yes","1280"
"95.6043956044","95.6043956044","471.054945055","471.054945055","#808080","no","legacy","legacy","legacy","0","uniform","1","undefined","undefined","undefined","1","l","0","0","0","90","0","0","90","90","0","0","0","90","90","0","90","Thu Apr 26 08:56:32 2018","#757575","low","7","The main experiment item","yes","","experiment.osexp","/Users/tom/github/sft-fraction/procedure","no","mono","no","24","no","white","no","yes","800","legacy","90","90","0","/Users/tom/github/sft-fraction/results/data/subject-1b.csv","legacy","#000000","high","6","Jazzy James","3.1.9","0","l","NA","space","space","a","l","NA","471","NA","29031","958","838","471","NA","2","legacy","1024","2","48000","-16","experiment","1","odd","present","32320","32320","NA","127574","1416","32305","133270","133788","1440","30489","31465","133789","134263","NA","133255","Fraction component detection task","87","42866","91","yes","1280"
"95.652173913","95.652173913","470.543478261","470.543478261","#808080","no","legacy","legacy","legacy","0","uniform","1","undefined","undefined","undefined","1","l","0","0","0","91","0","0","91","91","0","0","0","91","91","0","91","Thu Apr 26 08:56:32 2018","#757575","low","8","The main experiment item","yes","","experiment.osexp","/Users/tom/github/sft-fraction/procedure","no","mono","no","24","no","white","no","yes","800","legacy","91","91","0","/Users/tom/github/sft-fraction/results/data/subject-1b.csv","legacy","#000000","high","6","Jazzy James","3.1.9","0","l","NA","space","space","a","l","NA","424","NA","29031","958","838","424","NA","2","legacy","1024","2","48000","-16","experiment","1","odd","present","32320","32320","NA","127574","1416","32305","134351","134868","1440","30489","31465","134868","135295","NA","134330","Fraction component detection task","88","43290","92","yes","1280"
"95.6989247312","95.6989247312","472.225806452","472.225806452","#808080","no","legacy","legacy","legacy","0","uniform","1","undefined","undefined","undefined","1","l","0","0","0","92","0","0","92","92","0","0","0","92","92","0","92","Thu Apr 26 08:56:32 2018","#000000","high","4","The main experiment item","yes","","experiment.osexp","/Users/tom/github/sft-fraction/procedure","no","mono","no","24","no","white","no","yes","800","legacy","92","92","0","/Users/tom/github/sft-fraction/results/data/subject-1b.csv","legacy","#757575","low","6","Jazzy James","3.1.9","0","l","NA","space","space","a","l","NA","627","NA","29031","958","838","627","NA","2","legacy","1024","2","48000","-16","experiment","1","odd","present","32320","32320","NA","127574","1416","32305","135377","135898","1440","30489","31465","135898","136528","NA","135361","Fraction component detection task","89","43917","93","yes","1280"
"95.7446808511","95.7446808511","472.212765957","472.212765957","#808080","no","legacy","legacy","legacy","0","uniform","1","undefined","undefined","undefined","1","l","0","0","0","93","0","0","93","93","0","0","0","93","93","0","93","Thu Apr 26 08:56:32 2018","#757575","low","8","The main experiment item","yes","","experiment.osexp","/Users/tom/github/sft-fraction/procedure","no","mono","no","24","no","white","no","yes","800","legacy","93","93","0","/Users/tom/github/sft-fraction/results/data/subject-1b.csv","legacy","#757575","low","2","Jazzy James","3.1.9","0","l","NA","space","space","a","l","NA","471","NA","29031","958","838","471","NA","2","legacy","1024","2","48000","-16","experiment","1","odd","present","32320","32320","NA","127574","1416","32305","136618","137134","1440","30489","31465","137134","137608","NA","136598","Fraction component detection task","90","44388","94","yes","1280"
"94.7368421053","94.7368421053","473.042105263","473.042105263","#808080","no","legacy","legacy","legacy","0","uniform","0","undefined","undefined","undefined","0","l","0","0","0","94","0","0","94","94","0","0","0","94","94","0","94","Thu Apr 26 08:56:32 2018","#757575","low","4","The main experiment item","yes","","experiment.osexp","/Users/tom/github/sft-fraction/procedure","no","mono","no","24","no","white","no","yes","800","legacy","94","94","0","/Users/tom/github/sft-fraction/results/data/subject-1b.csv","legacy","#000000","high","6","Jazzy James","3.1.9","0","a","NA","space","space","a","a","NA","551","NA","29031","958","838","551","NA","2","legacy","1024","2","48000","-16","experiment","1","odd","present","32320","32320","NA","127574","1416","32305","137689","138206","1440","30489","31465","138206","138760","NA","137674","Fraction component detection task","90","44939","95","yes","1280"
"94.7916666667","94.7916666667","473.458333333","473.458333333","#808080","no","legacy","legacy","legacy","0","uniform","1","undefined","undefined","undefined","1","l","0","0","0","95","0","0","95","95","0","0","0","95","95","0","95","Thu Apr 26 08:56:32 2018","#000000","high","7","The main experiment item","yes","","experiment.osexp","/Users/tom/github/sft-fraction/procedure","no","mono","no","24","no","white","no","yes","800","legacy","95","95","0","/Users/tom/github/sft-fraction/results/data/subject-1b.csv","legacy","#757575","low","8","Jazzy James","3.1.9","0","l","NA","space","space","a","l","NA","513","NA","29031","958","838","513","NA","2","legacy","1024","2","48000","-16","experiment","1","odd","present","32320","32320","NA","138779","1416","32305","139862","140380","1440","30489","31465","140380","140896","NA","139846","Fraction component detection task","91","45452","96","yes","1280"
"94.8453608247","94.8453608247","475.051546392","475.051546392","#808080","no","legacy","legacy","legacy","0","uniform","1","undefined","undefined","undefined","1","a","0","0","0","96","0","0","96","96","0","0","0","96","96","0","96","Thu Apr 26 08:56:32 2018","#000000","high","4","The main experiment item","yes","","experiment.osexp","/Users/tom/github/sft-fraction/procedure","no","mono","no","24","no","white","no","yes","800","legacy","96","96","0","/Users/tom/github/sft-fraction/results/data/subject-1b.csv","legacy","#000000","high","4","Jazzy James","3.1.9","0","a","NA","space","space","a","a","NA","628","NA","29031","958","838","628","NA","2","legacy","1024","2","48000","-16","experiment","1","odd","absent","32320","32320","NA","138779","1416","32305","140978","141497","1440","30489","31465","141497","142127","NA","140963","Fraction component detection task","92","46080","97","yes","1280"
"94.8979591837","94.8979591837","475.459183673","475.459183673","#808080","no","legacy","legacy","legacy","0","uniform","1","undefined","undefined","undefined","1","l","0","0","0","97","0","0","97","97","0","0","0","97","97","0","97","Thu Apr 26 08:56:32 2018","#000000","high","3","The main experiment item","yes","","experiment.osexp","/Users/tom/github/sft-fraction/procedure","no","mono","no","24","no","white","no","yes","800","legacy","97","97","0","/Users/tom/github/sft-fraction/results/data/subject-1b.csv","legacy","#000000","high","7","Jazzy James","3.1.9","0","l","NA","space","space","a","l","NA","515","NA","29031","958","838","515","NA","2","legacy","1024","2","48000","-16","experiment","1","odd","present","32320","32320","NA","138779","1416","32305","142209","142730","1440","30489","31465","142730","143247","NA","142192","Fraction component detection task","93","46595","98","yes","1280"
"94.9494949495","94.9494949495","474.646464646","474.646464646","#808080","no","legacy","legacy","legacy","0","uniform","1","undefined","undefined","undefined","1","l","0","0","0","98","0","0","98","98","0","0","0","98","98","0","98","Thu Apr 26 08:56:32 2018","#000000","high","7","The main experiment item","yes","","experiment.osexp","/Users/tom/github/sft-fraction/procedure","no","mono","no","24","no","white","no","yes","800","legacy","98","98","0","/Users/tom/github/sft-fraction/results/data/subject-1b.csv","legacy","#757575","low","3","Jazzy James","3.1.9","0","l","NA","space","space","a","l","NA","395","NA","29031","958","838","395","NA","2","legacy","1024","2","48000","-16","experiment","1","odd","present","32320","32320","NA","138779","1416","32305","143333","143850","1440","30489","31465","143850","144247","NA","143317","Fraction component detection task","94","46990","99","yes","1280"
"95","95","473.8","473.8","#808080","no","legacy","legacy","legacy","0","uniform","1","undefined","undefined","undefined","1","l","0","0","0","99","0","0","99","99","0","0","0","99","99","0","99","Thu Apr 26 08:56:32 2018","#000000","high","6","The main experiment item","yes","","experiment.osexp","/Users/tom/github/sft-fraction/procedure","no","mono","no","24","no","white","no","yes","800","legacy","99","99","0","/Users/tom/github/sft-fraction/results/data/subject-1b.csv","legacy","#000000","high","7","Jazzy James","3.1.9","0","l","NA","space","space","a","l","NA","390","NA","29031","958","838","390","NA","2","legacy","1024","2","48000","-16","experiment","1","odd","present","32320","32320","NA","138779","1416","32305","144330","144847","1440","30489","31465","144847","145240","NA","144314","Fraction component detection task","95","47380","100","yes","1280"
"95.0495049505","95.0495049505","473.099009901","473.099009901","#808080","no","legacy","legacy","legacy","0","uniform","1","undefined","undefined","undefined","1","l","0","0","0","100","0","0","100","100","0","0","0","100","100","0","100","Thu Apr 26 08:56:32 2018","#000000","high","8","The main experiment item","yes","","experiment.osexp","/Users/tom/github/sft-fraction/procedure","no","mono","no","24","no","white","no","yes","800","legacy","100","100","0","/Users/tom/github/sft-fraction/results/data/subject-1b.csv","legacy","#000000","high","3","Jazzy James","3.1.9","0","l","NA","space","space","a","l","NA","403","NA","29031","958","838","403","NA","2","legacy","1024","2","48000","-16","experiment","1","odd","present","32320","32320","NA","138779","1416","32305","145323","145842","1440","30489","31465","145842","146248","NA","145307","Fraction component detection task","96","47783","101","yes","1280"
"95.0980392157","95.0980392157","472.637254902","472.637254902","#808080","no","legacy","legacy","legacy","0","uniform","1","undefined","undefined","undefined","1","l","0","0","0","101","0","0","101","101","0","0","0","101","101","0","101","Thu Apr 26 08:56:32 2018","#000000","high","2","The main experiment item","yes","","experiment.osexp","/Users/tom/github/sft-fraction/procedure","no","mono","no","24","no","white","no","yes","800","legacy","101","101","0","/Users/tom/github/sft-fraction/results/data/subject-1b.csv","legacy","#757575","low","7","Jazzy James","3.1.9","0","l","NA","space","space","a","l","NA","426","NA","29031","958","838","426","NA","2","legacy","1024","2","48000","-16","experiment","1","odd","present","32320","32320","NA","138779","1416","32305","146326","146843","1440","30489","31465","146843","147271","NA","146310","Fraction component detection task","97","48209","102","yes","1280"
"95.145631068","95.145631068","472.485436893","472.485436893","#808080","no","legacy","legacy","legacy","0","uniform","1","undefined","undefined","undefined","1","a","0","0","0","102","0","0","102","102","0","0","0","102","102","0","102","Thu Apr 26 08:56:32 2018","#757575","low","4","The main experiment item","yes","","experiment.osexp","/Users/tom/github/sft-fraction/procedure","no","mono","no","24","no","white","no","yes","800","legacy","102","102","0","/Users/tom/github/sft-fraction/results/data/subject-1b.csv","legacy","#757575","low","4","Jazzy James","3.1.9","0","a","NA","space","space","a","a","NA","457","NA","29031","958","838","457","NA","2","legacy","1024","2","48000","-16","experiment","1","odd","absent","32320","32320","NA","138779","1416","32305","147350","147868","1440","30489","31465","147868","148328","NA","147335","Fraction component detection task","98","48666","103","yes","1280"
"95.1923076923","95.1923076923","472.653846154","472.653846154","#808080","no","legacy","legacy","legacy","0","uniform","1","undefined","undefined","undefined","1","l","0","0","0","103","0","0","103","103","0","0","0","103","103","0","103","Thu Apr 26 08:56:32 2018","#757575","low","8","The main experiment item","yes","","experiment.osexp","/Users/tom/github/sft-fraction/procedure","no","mono","no","24","no","white","no","yes","800","legacy","103","103","0","/Users/tom/github/sft-fraction/results/data/subject-1b.csv","legacy","#757575","low","8","Jazzy James","3.1.9","0","l","NA","space","space","a","l","NA","490","NA","29031","958","838","490","NA","2","legacy","1024","2","48000","-16","experiment","1","odd","present","32320","32320","NA","138779","1416","32305","148414","148931","1440","30489","31465","148931","149424","NA","148398","Fraction component detection task","99","49156","104","yes","1280"
"95.2380952381","95.2380952381","471.676190476","471.676190476","#808080","no","legacy","legacy","legacy","0","uniform","1","undefined","undefined","undefined","1","l","0","0","0","104","0","0","104","104","0","0","0","104","104","0","104","Thu Apr 26 08:56:32 2018","#000000","high","8","The main experiment item","yes","","experiment.osexp","/Users/tom/github/sft-fraction/procedure","no","mono","no","24","no","white","no","yes","800","legacy","104","104","0","/Users/tom/github/sft-fraction/results/data/subject-1b.csv","legacy","#000000","high","7","Jazzy James","3.1.9","0","l","NA","space","space","a","l","NA","370","NA","29031","958","838","370","NA","2","legacy","1024","2","48000","-16","experiment","1","odd","present","32320","32320","NA","138779","1416","32305","149516","150035","1440","30489","31465","150035","150408","NA","149491","Fraction component detection task","100","49526","105","yes","1280"
"95.2830188679","95.2830188679","471.669811321","471.669811321","#808080","no","legacy","legacy","legacy","0","uniform","1","undefined","undefined","undefined","1","l","0","0","0","105","0","0","105","105","0","0","0","105","105","0","105","Thu Apr 26 08:56:32 2018","#000000","high","6","The main experiment item","yes","","experiment.osexp","/Users/tom/github/sft-fraction/procedure","no","mono","no","24","no","white","no","yes","800","legacy","105","105","0","/Users/tom/github/sft-fraction/results/data/subject-1b.csv","legacy","#757575","low","3","Jazzy James","3.1.9","0","l","NA","space","space","a","l","NA","471","NA","29031","958","838","471","NA","2","legacy","1024","2","48000","-16","experiment","1","odd","present","32320","32320","NA","138779","1416","32305","150498","151014","1440","30489","31465","151014","151488","NA","150480","Fraction component detection task","101","49997","106","yes","1280"
"95.3271028037","95.3271028037","472.065420561","472.065420561","#808080","no","legacy","legacy","legacy","0","uniform","1","undefined","undefined","undefined","1","a","0","0","0","106","0","0","106","106","0","0","0","106","106","0","106","Thu Apr 26 08:56:32 2018","#000000","high","2","The main experiment item","yes","","experiment.osexp","/Users/tom/github/sft-fraction/procedure","no","mono","no","24","no","white","no","yes","800","legacy","106","106","0","/Users/tom/github/sft-fraction/results/data/subject-1b.csv","legacy","#757575","low","2","Jazzy James","3.1.9","0","a","NA","space","space","a","a","NA","514","NA","29031","958","838","514","NA","2","legacy","1024","2","48000","-16","experiment","1","odd","absent","32320","32320","NA","138779","1416","32305","151567","152084","1440","30489","31465","152084","152601","NA","151552","Fraction component detection task","102","50511","107","yes","1280"
"95.3703703704","95.3703703704","471.416666667","471.416666667","#808080","no","legacy","legacy","legacy","0","uniform","1","undefined","undefined","undefined","1","a","0","0","0","107","0","0","107","107","0","0","0","107","107","0","107","Thu Apr 26 08:56:32 2018","#757575","low","2","The main experiment item","yes","","experiment.osexp","/Users/tom/github/sft-fraction/procedure","no","mono","no","24","no","white","no","yes","800","legacy","107","107","0","/Users/tom/github/sft-fraction/results/data/subject-1b.csv","legacy","#000000","high","4","Jazzy James","3.1.9","0","a","NA","space","space","a","a","NA","402","NA","29031","958","838","402","NA","2","legacy","1024","2","48000","-16","experiment","1","odd","absent","32320","32320","NA","138779","1416","32305","152680","153196","1440","30489","31465","153196","153601","NA","152664","Fraction component detection task","103","50913","108","yes","1280"
"95.4128440367","95.4128440367","473.128440367","473.128440367","#808080","no","legacy","legacy","legacy","0","uniform","1","undefined","undefined","undefined","1","l","0","0","0","108","0","0","108","108","0","0","0","108","108","0","108","Thu Apr 26 08:56:32 2018","#000000","high","7","The main experiment item","yes","","experiment.osexp","/Users/tom/github/sft-fraction/procedure","no","mono","no","24","no","white","no","yes","800","legacy","108","108","0","/Users/tom/github/sft-fraction/results/data/subject-1b.csv","legacy","#757575","low","2","Jazzy James","3.1.9","0","l","NA","space","space","a","l","NA","658","NA","29031","958","838","658","NA","2","legacy","1024","2","48000","-16","experiment","1","odd","present","32320","32320","NA","138779","1416","32305","153687","154204","1440","30489","31465","154204","154865","NA","153670","Fraction component detection task","104","51571","109","yes","1280"
