"acc","accuracy","average_response_time","avg_rt","background","bidi","canvas_backend","clock_backend","color_backend","compensation","coordinates","correct","correct_instructions1","correct_instructions2","correct_instructions3","correct_keyboard_response","correct_response","count_block_loop","count_block_sequence","count_end_of_experiment","count_error","count_experiment","count_experimental_loop","count_fixation_dot","count_fraction","count_instructions1","count_instructions2","count_instructions3","count_keyboard_response","count_logger","count_rest","count_trial_sequence","datetime","denomColor","denomSalience","denominator","description","disable_garbage_collection","empty_column","experiment_file","experiment_path","font_bold","font_family","font_italic","font_size","font_underline","foreground","form_clicks","fullscreen","height","keyboard_backend","live_row","live_row_block_loop","live_row_experimental_loop","logfile","mouse_backend","numColor","numSalience","numerator","opensesame_codename","opensesame_version","repeat_cycle","response","response_end_of_experiment","response_instructions1","response_instructions2","response_instructions3","response_keyboard_response","response_rest","response_time","response_time_end_of_experiment","response_time_instructions1","response_time_instructions2","response_time_instructions3","response_time_keyboard_response","response_time_rest","round_decimals","sampler_backend","sound_buf_size","sound_channels","sound_freq","sound_sample_size","start","subject_nr","subject_parity","target","time_block_loop","time_block_sequence","time_end_of_experiment","time_error","time_experiment","time_experimental_loop","time_fixation_dot","time_fraction","time_instructions1","time_instructions2","time_instructions3","time_keyboard_response","time_logger","time_rest","time_trial_sequence","title","total_correct","total_response_time","total_responses","uniform_coordinates","width"
"0","0","2906","2906","#808080","no","legacy","legacy","legacy","0","uniform","0","undefined","undefined","undefined","0","a","0","0","0","0","0","0","0","0","0","0","0","0","0","0","0","Tue Apr 24 10:05:50 2018","#757575","low","2","The main experiment item","yes","","experiment.osexp","/Users/tom/github/sft-fraction/procedure","no","mono","no","24","no","white","no","yes","800","legacy","0","0","0","/Users/tom/github/sft-fraction/results/subject-2a.csv","legacy","#000000","high","2","Jazzy James","3.1.9","0","l","NA","space","l","l","l","NA","2906","NA","131817","21408","37772","2906","NA","2","legacy","1024","2","48000","-16","experiment","2","even","absent","192369","192369","NA","NA","1298","192353","192416","192933","1316","133150","154579","192933","195841","NA","192400","Fraction component detection task","0","2906","1","yes","1280"
"50","50","2357","2357","#808080","no","legacy","legacy","legacy","0","uniform","1","undefined","undefined","undefined","1","a","0","0","0","1","0","0","1","1","0","0","0","1","1","0","1","Tue Apr 24 10:05:50 2018","#757575","low","2","The main experiment item","yes","","experiment.osexp","/Users/tom/github/sft-fraction/procedure","no","mono","no","24","no","white","no","yes","800","legacy","1","1","0","/Users/tom/github/sft-fraction/results/subject-2a.csv","legacy","#757575","low","2","Jazzy James","3.1.9","0","a","NA","space","l","l","a","NA","1808","NA","131817","21408","37772","1808","NA","2","legacy","1024","2","48000","-16","experiment","2","even","absent","192369","192369","NA","195866","1298","192353","196956","197472","1316","133150","154579","197472","199281","NA","196935","Fraction component detection task","1","4714","2","yes","1280"
"66.6666666667","66.6666666667","2199.33333333","2199.33333333","#808080","no","legacy","legacy","legacy","0","uniform","1","undefined","undefined","undefined","1","a","0","0","0","2","0","0","2","2","0","0","0","2","2","0","2","Tue Apr 24 10:05:50 2018","#000000","high","3","The main experiment item","yes","","experiment.osexp","/Users/tom/github/sft-fraction/procedure","no","mono","no","24","no","white","no","yes","800","legacy","2","2","0","/Users/tom/github/sft-fraction/results/subject-2a.csv","legacy","#757575","low","2","Jazzy James","3.1.9","0","a","NA","space","l","l","a","NA","1884","NA","131817","21408","37772","1884","NA","2","legacy","1024","2","48000","-16","experiment","2","even","absent","192369","192369","NA","195866","1298","192353","199367","199884","1316","133150","154579","199884","201769","NA","199347","Fraction component detection task","2","6598","3","yes","1280"
"75","75","1866.5","1866.5","#808080","no","legacy","legacy","legacy","0","uniform","1","undefined","undefined","undefined","1","a","0","0","0","3","0","0","3","3","0","0","0","3","3","0","3","Tue Apr 24 10:05:50 2018","#757575","low","2","The main experiment item","yes","","experiment.osexp","/Users/tom/github/sft-fraction/procedure","no","mono","no","24","no","white","no","yes","800","legacy","3","3","0","/Users/tom/github/sft-fraction/results/subject-2a.csv","legacy","#000000","high","4","Jazzy James","3.1.9","0","a","NA","space","l","l","a","NA","868","NA","131817","21408","37772","868","NA","2","legacy","1024","2","48000","-16","experiment","2","even","absent","192369","192369","NA","195866","1298","192353","201856","202372","1316","133150","154579","202372","203241","NA","201836","Fraction component detection task","3","7466","4","yes","1280"
"80","80","1873.8","1873.8","#808080","no","legacy","legacy","legacy","0","uniform","1","undefined","undefined","undefined","1","l","0","0","0","4","0","0","4","4","0","0","0","4","4","0","4","Tue Apr 24 10:05:50 2018","#000000","high","6","The main experiment item","yes","","experiment.osexp","/Users/tom/github/sft-fraction/procedure","no","mono","no","24","no","white","no","yes","800","legacy","4","4","0","/Users/tom/github/sft-fraction/results/subject-2a.csv","legacy","#000000","high","4","Jazzy James","3.1.9","0","l","NA","space","l","l","l","NA","1903","NA","131817","21408","37772","1903","NA","2","legacy","1024","2","48000","-16","experiment","2","even","present","192369","192369","NA","195866","1298","192353","203333","203849","1316","133150","154579","203849","205754","NA","203313","Fraction component detection task","4","9369","5","yes","1280"
"83.3333333333","83.3333333333","1706.66666667","1706.66666667","#808080","no","legacy","legacy","legacy","0","uniform","1","undefined","undefined","undefined","1","a","0","0","0","5","0","0","5","5","0","0","0","5","5","0","5","Tue Apr 24 10:05:50 2018","#000000","high","2","The main experiment item","yes","","experiment.osexp","/Users/tom/github/sft-fraction/procedure","no","mono","no","24","no","white","no","yes","800","legacy","5","5","0","/Users/tom/github/sft-fraction/results/subject-2a.csv","legacy","#000000","high","2","Jazzy James","3.1.9","0","a","NA","space","l","l","a","NA","871","NA","131817","21408","37772","871","NA","2","legacy","1024","2","48000","-16","experiment","2","even","absent","192369","192369","NA","195866","1298","192353","205837","206353","1316","133150","154579","206353","207226","NA","205818","Fraction component detection task","5","10240","6","yes","1280"
"85.7142857143","85.7142857143","1633.14285714","1633.14285714","#808080","no","legacy","legacy","legacy","0","uniform","1","undefined","undefined","undefined","1","a","0","0","0","6","0","0","6","6","0","0","0","6","6","0","6","Tue Apr 24 10:05:50 2018","#000000","high","2","The main experiment item","yes","","experiment.osexp","/Users/tom/github/sft-fraction/procedure","no","mono","no","24","no","white","no","yes","800","legacy","6","6","0","/Users/tom/github/sft-fraction/results/subject-2a.csv","legacy","#000000","high","4","Jazzy James","3.1.9","0","a","NA","space","l","l","a","NA","1192","NA","131817","21408","37772","1192","NA","2","legacy","1024","2","48000","-16","experiment","2","even","absent","192369","192369","NA","195866","1298","192353","207308","207824","1316","133150","154579","207824","209018","NA","207293","Fraction component detection task","6","11432","7","yes","1280"
"87.5","87.5","1551.5","1551.5","#808080","no","legacy","legacy","legacy","0","uniform","1","undefined","undefined","undefined","1","l","0","0","0","7","0","0","7","7","0","0","0","7","7","0","7","Tue Apr 24 10:05:50 2018","#000000","high","8","The main experiment item","yes","","experiment.osexp","/Users/tom/github/sft-fraction/procedure","no","mono","no","24","no","white","no","yes","800","legacy","7","7","0","/Users/tom/github/sft-fraction/results/subject-2a.csv","legacy","#757575","low","4","Jazzy James","3.1.9","0","l","NA","space","l","l","l","NA","980","NA","131817","21408","37772","980","NA","2","legacy","1024","2","48000","-16","experiment","2","even","present","192369","192369","NA","195866","1298","192353","209104","209620","1316","133150","154579","209620","210602","NA","209083","Fraction component detection task","7","12412","8","yes","1280"
"88.8888888889","88.8888888889","1460.66666667","1460.66666667","#808080","no","legacy","legacy","legacy","0","uniform","1","undefined","undefined","undefined","1","l","0","0","0","8","0","0","8","8","0","0","0","8","8","0","8","Tue Apr 24 10:05:50 2018","#000000","high","7","The main experiment item","yes","","experiment.osexp","/Users/tom/github/sft-fraction/procedure","no","mono","no","24","no","white","no","yes","800","legacy","8","8","0","/Users/tom/github/sft-fraction/results/subject-2a.csv","legacy","#757575","low","2","Jazzy James","3.1.9","0","l","NA","space","l","l","l","NA","734","NA","131817","21408","37772","734","NA","2","legacy","1024","2","48000","-16","experiment","2","even","present","192369","192369","NA","195866","1298","192353","210679","211195","1316","133150","154579","211195","211931","NA","210664","Fraction component detection task","8","13146","9","yes","1280"
"90","90","1417.5","1417.5","#808080","no","legacy","legacy","legacy","0","uniform","1","undefined","undefined","undefined","1","a","0","0","0","9","0","0","9","9","0","0","0","9","9","0","9","Tue Apr 24 10:05:50 2018","#757575","low","4","The main experiment item","yes","","experiment.osexp","/Users/tom/github/sft-fraction/procedure","no","mono","no","24","no","white","no","yes","800","legacy","9","9","0","/Users/tom/github/sft-fraction/results/subject-2a.csv","legacy","#000000","high","4","Jazzy James","3.1.9","0","a","NA","space","l","l","a","NA","1029","NA","131817","21408","37772","1029","NA","2","legacy","1024","2","48000","-16","experiment","2","even","absent","192369","192369","NA","195866","1298","192353","212011","212531","1316","133150","154579","212531","213562","NA","211996","Fraction component detection task","9","14175","10","yes","1280"
"90.9090909091","90.9090909091","1404.18181818","1404.18181818","#808080","no","legacy","legacy","legacy","0","uniform","1","undefined","undefined","undefined","1","l","0","0","0","10","0","0","10","10","0","0","0","10","10","0","10","Tue Apr 24 10:05:50 2018","#000000","high","6","The main experiment item","yes","","experiment.osexp","/Users/tom/github/sft-fraction/procedure","no","mono","no","24","no","white","no","yes","800","legacy","10","10","0","/Users/tom/github/sft-fraction/results/subject-2a.csv","legacy","#757575","low","6","Jazzy James","3.1.9","0","l","NA","space","l","l","l","NA","1271","NA","131817","21408","37772","1271","NA","2","legacy","1024","2","48000","-16","experiment","2","even","present","192369","192369","NA","195866","1298","192353","213640","214160","1316","133150","154579","214161","215434","NA","213625","Fraction component detection task","10","15446","11","yes","1280"
"91.6666666667","91.6666666667","1369.58333333","1369.58333333","#808080","no","legacy","legacy","legacy","0","uniform","1","undefined","undefined","undefined","1","a","0","0","0","11","0","0","11","11","0","0","0","11","11","0","11","Tue Apr 24 10:05:50 2018","#757575","low","4","The main experiment item","yes","","experiment.osexp","/Users/tom/github/sft-fraction/procedure","no","mono","no","24","no","white","no","yes","800","legacy","11","11","0","/Users/tom/github/sft-fraction/results/subject-2a.csv","legacy","#757575","low","2","Jazzy James","3.1.9","0","a","NA","space","l","l","a","NA","989","NA","131817","21408","37772","989","NA","2","legacy","1024","2","48000","-16","experiment","2","even","absent","192369","192369","NA","195866","1298","192353","215551","216067","1316","133150","154579","216067","217058","NA","215533","Fraction component detection task","11","16435","12","yes","1280"
"92.3076923077","92.3076923077","1337.07692308","1337.07692308","#808080","no","legacy","legacy","legacy","0","uniform","1","undefined","undefined","undefined","1","l","0","0","0","12","0","0","12","12","0","0","0","12","12","0","12","Tue Apr 24 10:05:50 2018","#000000","high","2","The main experiment item","yes","","experiment.osexp","/Users/tom/github/sft-fraction/procedure","no","mono","no","24","no","white","no","yes","800","legacy","12","12","0","/Users/tom/github/sft-fraction/results/subject-2a.csv","legacy","#757575","low","7","Jazzy James","3.1.9","0","l","NA","space","l","l","l","NA","947","NA","131817","21408","37772","947","NA","2","legacy","1024","2","48000","-16","experiment","2","even","present","192369","192369","NA","195866","1298","192353","217144","217661","1316","133150","154579","217661","218611","NA","217128","Fraction component detection task","12","17382","13","yes","1280"
"92.8571428571","92.8571428571","1297.92857143","1297.92857143","#808080","no","legacy","legacy","legacy","0","uniform","1","undefined","undefined","undefined","1","l","0","0","0","13","0","0","13","13","0","0","0","13","13","0","13","Tue Apr 24 10:05:50 2018","#000000","high","6","The main experiment item","yes","","experiment.osexp","/Users/tom/github/sft-fraction/procedure","no","mono","no","24","no","white","no","yes","800","legacy","13","13","0","/Users/tom/github/sft-fraction/results/subject-2a.csv","legacy","#000000","high","2","Jazzy James","3.1.9","0","l","NA","space","l","l","l","NA","789","NA","131817","21408","37772","789","NA","2","legacy","1024","2","48000","-16","experiment","2","even","present","192369","192369","NA","195866","1298","192353","218690","219211","1316","133150","154579","219211","220002","NA","218675","Fraction component detection task","13","18171","14","yes","1280"
"93.3333333333","93.3333333333","1253.2","1253.2","#808080","no","legacy","legacy","legacy","0","uniform","1","undefined","undefined","undefined","1","a","0","0","0","14","0","0","14","14","0","0","0","14","14","0","14","Tue Apr 24 10:05:50 2018","#757575","low","2","The main experiment item","yes","","experiment.osexp","/Users/tom/github/sft-fraction/procedure","no","mono","no","24","no","white","no","yes","800","legacy","14","14","0","/Users/tom/github/sft-fraction/results/subject-2a.csv","legacy","#757575","low","3","Jazzy James","3.1.9","0","a","NA","space","l","l","a","NA","627","NA","131817","21408","37772","627","NA","2","legacy","1024","2","48000","-16","experiment","2","even","absent","192369","192369","NA","195866","1298","192353","220088","220606","1316","133150","154579","220606","221234","NA","220073","Fraction component detection task","14","18798","15","yes","1280"
"93.75","93.75","1223.5","1223.5","#808080","no","legacy","legacy","legacy","0","uniform","1","undefined","undefined","undefined","1","l","0","0","0","15","0","0","15","15","0","0","0","15","15","0","15","Tue Apr 24 10:05:50 2018","#757575","low","8","The main experiment item","yes","","experiment.osexp","/Users/tom/github/sft-fraction/procedure","no","mono","no","24","no","white","no","yes","800","legacy","15","15","0","/Users/tom/github/sft-fraction/results/subject-2a.csv","legacy","#000000","high","3","Jazzy James","3.1.9","0","l","NA","space","l","l","l","NA","778","NA","131817","21408","37772","778","NA","2","legacy","1024","2","48000","-16","experiment","2","even","present","192369","192369","NA","195866","1298","192353","221319","221839","1316","133150","154579","221839","222619","NA","221304","Fraction component detection task","15","19576","16","yes","1280"
"94.1176470588","94.1176470588","1208.23529412","1208.23529412","#808080","no","legacy","legacy","legacy","0","uniform","1","undefined","undefined","undefined","1","l","0","0","0","16","0","0","16","16","0","0","0","16","16","0","16","Tue Apr 24 10:05:50 2018","#757575","low","2","The main experiment item","yes","","experiment.osexp","/Users/tom/github/sft-fraction/procedure","no","mono","no","24","no","white","no","yes","800","legacy","16","16","0","/Users/tom/github/sft-fraction/results/subject-2a.csv","legacy","#000000","high","8","Jazzy James","3.1.9","0","l","NA","space","l","l","l","NA","964","NA","131817","21408","37772","964","NA","2","legacy","1024","2","48000","-16","experiment","2","even","present","192369","192369","NA","195866","1298","192353","222704","223221","1316","133150","154579","223221","224187","NA","222685","Fraction component detection task","16","20540","17","yes","1280"
"94.4444444444","94.4444444444","1176.55555556","1176.55555556","#808080","no","legacy","legacy","legacy","0","uniform","1","undefined","undefined","undefined","1","a","0","0","0","17","0","0","17","17","0","0","0","17","17","0","17","Tue Apr 24 10:05:50 2018","#757575","low","2","The main experiment item","yes","","experiment.osexp","/Users/tom/github/sft-fraction/procedure","no","mono","no","24","no","white","no","yes","800","legacy","17","17","0","/Users/tom/github/sft-fraction/results/subject-2a.csv","legacy","#757575","low","2","Jazzy James","3.1.9","0","a","NA","space","l","l","a","NA","638","NA","131817","21408","37772","638","NA","2","legacy","1024","2","48000","-16","experiment","2","even","absent","192369","192369","NA","195866","1298","192353","224266","224787","1316","133150","154579","224787","225427","NA","224250","Fraction component detection task","17","21178","18","yes","1280"
"94.7368421053","94.7368421053","1171.68421053","1171.68421053","#808080","no","legacy","legacy","legacy","0","uniform","1","undefined","undefined","undefined","1","a","0","0","0","18","0","0","18","18","0","0","0","18","18","0","18","Tue Apr 24 10:05:50 2018","#757575","low","2","The main experiment item","yes","","experiment.osexp","/Users/tom/github/sft-fraction/procedure","no","mono","no","24","no","white","no","yes","800","legacy","18","18","0","/Users/tom/github/sft-fraction/results/subject-2a.csv","legacy","#757575","low","3","Jazzy James","3.1.9","0","a","NA","space","l","l","a","NA","1084","NA","131817","21408","37772","1084","NA","2","legacy","1024","2","48000","-16","experiment","2","even","absent","192369","192369","NA","195866","1298","192353","225512","226029","1316","133150","154579","226029","227115","NA","225492","Fraction component detection task","18","22262","19","yes","1280"
"95","95","1149.55","1149.55","#808080","no","legacy","legacy","legacy","0","uniform","1","undefined","undefined","undefined","1","l","0","0","0","19","0","0","19","19","0","0","0","19","19","0","19","Tue Apr 24 10:05:50 2018","#757575","low","7","The main experiment item","yes","","experiment.osexp","/Users/tom/github/sft-fraction/procedure","no","mono","no","24","no","white","no","yes","800","legacy","19","19","0","/Users/tom/github/sft-fraction/results/subject-2a.csv","legacy","#757575","low","4","Jazzy James","3.1.9","0","l","NA","space","l","l","l","NA","729","NA","131817","21408","37772","729","NA","2","legacy","1024","2","48000","-16","experiment","2","even","present","192369","192369","NA","195866","1298","192353","227194","227712","1316","133150","154579","227712","228443","NA","227179","Fraction component detection task","19","22991","20","yes","1280"
"95.2380952381","95.2380952381","1130.71428571","1130.71428571","#808080","no","legacy","legacy","legacy","0","uniform","1","undefined","undefined","undefined","1","a","0","0","0","20","0","0","20","20","0","0","0","20","20","0","20","Tue Apr 24 10:05:50 2018","#757575","low","3","The main experiment item","yes","","experiment.osexp","/Users/tom/github/sft-fraction/procedure","no","mono","no","24","no","white","no","yes","800","legacy","20","20","0","/Users/tom/github/sft-fraction/results/subject-2a.csv","legacy","#000000","high","4","Jazzy James","3.1.9","0","a","NA","space","l","l","a","NA","754","NA","131817","21408","37772","754","NA","2","legacy","1024","2","48000","-16","experiment","2","even","absent","192369","192369","NA","195866","1298","192353","228526","229047","1316","133150","154579","229047","229803","NA","228511","Fraction component detection task","20","23745","21","yes","1280"
"95.4545454545","95.4545454545","1108.54545455","1108.54545455","#808080","no","legacy","legacy","legacy","0","uniform","1","undefined","undefined","undefined","1","a","0","0","0","21","0","0","21","21","0","0","0","21","21","0","21","Tue Apr 24 10:05:50 2018","#757575","low","4","The main experiment item","yes","","experiment.osexp","/Users/tom/github/sft-fraction/procedure","no","mono","no","24","no","white","no","yes","800","legacy","21","21","0","/Users/tom/github/sft-fraction/results/subject-2a.csv","legacy","#000000","high","3","Jazzy James","3.1.9","0","a","NA","space","l","l","a","NA","643","NA","131817","21408","37772","643","NA","2","legacy","1024","2","48000","-16","experiment","2","even","absent","192369","192369","NA","195866","1298","192353","229888","230406","1316","133150","154579","230406","231051","NA","229872","Fraction component detection task","21","24388","22","yes","1280"
"95.652173913","95.652173913","1087.08695652","1087.08695652","#808080","no","legacy","legacy","legacy","0","uniform","1","undefined","undefined","undefined","1","l","0","0","0","22","0","0","22","22","0","0","0","22","22","0","22","Tue Apr 24 10:05:50 2018","#757575","low","8","The main experiment item","yes","","experiment.osexp","/Users/tom/github/sft-fraction/procedure","no","mono","no","24","no","white","no","yes","800","legacy","22","22","0","/Users/tom/github/sft-fraction/results/subject-2a.csv","legacy","#757575","low","3","Jazzy James","3.1.9","0","l","NA","space","l","l","l","NA","615","NA","131817","21408","37772","615","NA","2","legacy","1024","2","48000","-16","experiment","2","even","present","192369","192369","NA","195866","1298","192353","231133","231649","1316","133150","154579","231650","232267","NA","231114","Fraction component detection task","22","25003","23","yes","1280"
"95.8333333333","95.8333333333","1071.91666667","1071.91666667","#808080","no","legacy","legacy","legacy","0","uniform","1","undefined","undefined","undefined","1","l","0","0","0","23","0","0","23","23","0","0","0","23","23","0","23","Tue Apr 24 10:05:50 2018","#000000","high","7","The main experiment item","yes","","experiment.osexp","/Users/tom/github/sft-fraction/procedure","no","mono","no","24","no","white","no","yes","800","legacy","23","23","0","/Users/tom/github/sft-fraction/results/subject-2a.csv","legacy","#757575","low","8","Jazzy James","3.1.9","0","l","NA","space","l","l","l","NA","723","NA","131817","21408","37772","723","NA","2","legacy","1024","2","48000","-16","experiment","2","even","present","192369","192369","NA","195866","1298","192353","232349","232870","1316","133150","154579","232870","233595","NA","232334","Fraction component detection task","23","25726","24","yes","1280"
"96","96","1048.52","1048.52","#808080","no","legacy","legacy","legacy","0","uniform","1","undefined","undefined","undefined","1","a","0","0","0","24","0","0","24","24","0","0","0","24","24","0","24","Tue Apr 24 10:05:50 2018","#000000","high","2","The main experiment item","yes","","experiment.osexp","/Users/tom/github/sft-fraction/procedure","no","mono","no","24","no","white","no","yes","800","legacy","24","24","0","/Users/tom/github/sft-fraction/results/subject-2a.csv","legacy","#000000","high","2","Jazzy James","3.1.9","0","a","NA","space","l","l","a","NA","487","NA","131817","21408","37772","487","NA","2","legacy","1024","2","48000","-16","experiment","2","even","absent","192369","192369","NA","195866","1298","192353","233677","234194","1316","133150","154579","234194","234683","NA","233662","Fraction component detection task","24","26213","25","yes","1280"
"96.1538461538","96.1538461538","1031.69230769","1031.69230769","#808080","no","legacy","legacy","legacy","0","uniform","1","undefined","undefined","undefined","1","a","0","0","0","25","0","0","25","25","0","0","0","25","25","0","25","Tue Apr 24 10:05:50 2018","#757575","low","4","The main experiment item","yes","","experiment.osexp","/Users/tom/github/sft-fraction/procedure","no","mono","no","24","no","white","no","yes","800","legacy","25","25","0","/Users/tom/github/sft-fraction/results/subject-2a.csv","legacy","#000000","high","3","Jazzy James","3.1.9","0","a","NA","space","l","l","a","NA","611","NA","131817","21408","37772","611","NA","2","legacy","1024","2","48000","-16","experiment","2","even","absent","192369","192369","NA","195866","1298","192353","234765","235286","1316","133150","154579","235286","235899","NA","234750","Fraction component detection task","25","26824","26","yes","1280"
"96.2962962963","96.2962962963","1011.81481481","1011.81481481","#808080","no","legacy","legacy","legacy","0","uniform","1","undefined","undefined","undefined","1","l","0","0","0","26","0","0","26","26","0","0","0","26","26","0","26","Tue Apr 24 10:05:50 2018","#000000","high","7","The main experiment item","yes","","experiment.osexp","/Users/tom/github/sft-fraction/procedure","no","mono","no","24","no","white","no","yes","800","legacy","26","26","0","/Users/tom/github/sft-fraction/results/subject-2a.csv","legacy","#000000","high","3","Jazzy James","3.1.9","0","l","NA","space","l","l","l","NA","495","NA","131817","21408","37772","495","NA","2","legacy","1024","2","48000","-16","experiment","2","even","present","192369","192369","NA","195866","1298","192353","235987","236505","1316","133150","154579","236506","237004","NA","235969","Fraction component detection task","26","27319","27","yes","1280"
"96.4285714286","96.4285714286","993.428571429","993.428571429","#808080","no","legacy","legacy","legacy","0","uniform","1","undefined","undefined","undefined","1","l","0","0","0","27","0","0","27","27","0","0","0","27","27","0","27","Tue Apr 24 10:05:50 2018","#000000","high","7","The main experiment item","yes","","experiment.osexp","/Users/tom/github/sft-fraction/procedure","no","mono","no","24","no","white","no","yes","800","legacy","27","27","0","/Users/tom/github/sft-fraction/results/subject-2a.csv","legacy","#757575","low","3","Jazzy James","3.1.9","0","l","NA","space","l","l","l","NA","497","NA","131817","21408","37772","497","NA","2","legacy","1024","2","48000","-16","experiment","2","even","present","192369","192369","NA","195866","1298","192353","237091","237608","1316","133150","154579","237608","238108","NA","237073","Fraction component detection task","27","27816","28","yes","1280"
"96.5517241379","96.5517241379","983.275862069","983.275862069","#808080","no","legacy","legacy","legacy","0","uniform","1","undefined","undefined","undefined","1","l","0","0","0","28","0","0","28","28","0","0","0","28","28","0","28","Tue Apr 24 10:05:50 2018","#757575","low","6","The main experiment item","yes","","experiment.osexp","/Users/tom/github/sft-fraction/procedure","no","mono","no","24","no","white","no","yes","800","legacy","28","28","0","/Users/tom/github/sft-fraction/results/subject-2a.csv","legacy","#000000","high","6","Jazzy James","3.1.9","0","l","NA","space","l","l","l","NA","699","NA","131817","21408","37772","699","NA","2","legacy","1024","2","48000","-16","experiment","2","even","present","192369","192369","NA","195866","1298","192353","238201","238718","1316","133150","154579","238718","239420","NA","238180","Fraction component detection task","28","28515","29","yes","1280"
"96.6666666667","96.6666666667","970.9","970.9","#808080","no","legacy","legacy","legacy","0","uniform","1","undefined","undefined","undefined","1","l","0","0","0","29","0","0","29","29","0","0","0","29","29","0","29","Tue Apr 24 10:05:50 2018","#757575","low","3","The main experiment item","yes","","experiment.osexp","/Users/tom/github/sft-fraction/procedure","no","mono","no","24","no","white","no","yes","800","legacy","29","29","0","/Users/tom/github/sft-fraction/results/subject-2a.csv","legacy","#000000","high","6","Jazzy James","3.1.9","0","l","NA","space","l","l","l","NA","612","NA","131817","21408","37772","612","NA","2","legacy","1024","2","48000","-16","experiment","2","even","present","192369","192369","NA","195866","1298","192353","239504","240021","1316","133150","154579","240021","240635","NA","239488","Fraction component detection task","29","29127","30","yes","1280"
"96.7741935484","96.7741935484","962.806451613","962.806451613","#808080","no","legacy","legacy","legacy","0","uniform","1","undefined","undefined","undefined","1","a","0","0","0","30","0","0","30","30","0","0","0","30","30","0","30","Tue Apr 24 10:05:50 2018","#757575","low","3","The main experiment item","yes","","experiment.osexp","/Users/tom/github/sft-fraction/procedure","no","mono","no","24","no","white","no","yes","800","legacy","30","30","0","/Users/tom/github/sft-fraction/results/subject-2a.csv","legacy","#000000","high","3","Jazzy James","3.1.9","0","a","NA","space","l","l","a","NA","720","NA","131817","21408","37772","720","NA","2","legacy","1024","2","48000","-16","experiment","2","even","absent","192369","192369","NA","195866","1298","192353","240719","241235","1316","133150","154579","241235","241957","NA","240699","Fraction component detection task","30","29847","31","yes","1280"
"96.875","96.875","956.5625","956.5625","#808080","no","legacy","legacy","legacy","0","uniform","1","undefined","undefined","undefined","1","a","0","0","0","31","0","0","31","31","0","0","0","31","31","0","31","Tue Apr 24 10:05:50 2018","#757575","low","3","The main experiment item","yes","","experiment.osexp","/Users/tom/github/sft-fraction/procedure","no","mono","no","24","no","white","no","yes","800","legacy","31","31","0","/Users/tom/github/sft-fraction/results/subject-2a.csv","legacy","#000000","high","4","Jazzy James","3.1.9","0","a","NA","space","l","l","a","NA","763","NA","131817","21408","37772","763","NA","2","legacy","1024","2","48000","-16","experiment","2","even","absent","192369","192369","NA","195866","1298","192353","242041","242559","1316","133150","154579","242559","243324","NA","242021","Fraction component detection task","31","30610","32","yes","1280"
"96.9696969697","96.9696969697","952.484848485","952.484848485","#808080","no","legacy","legacy","legacy","0","uniform","1","undefined","undefined","undefined","1","l","0","0","0","32","0","0","32","32","0","0","0","32","32","0","32","Tue Apr 24 10:05:50 2018","#757575","low","7","The main experiment item","yes","","experiment.osexp","/Users/tom/github/sft-fraction/procedure","no","mono","no","24","no","white","no","yes","800","legacy","32","32","0","/Users/tom/github/sft-fraction/results/subject-2a.csv","legacy","#757575","low","3","Jazzy James","3.1.9","0","l","NA","space","l","l","l","NA","822","NA","131817","21408","37772","822","NA","2","legacy","1024","2","48000","-16","experiment","2","even","present","192369","192369","NA","195866","1298","192353","243409","243932","1316","133150","154579","243932","244756","NA","243391","Fraction component detection task","32","31432","33","yes","1280"
"97.0588235294","97.0588235294","940.970588235","940.970588235","#808080","no","legacy","legacy","legacy","0","uniform","1","undefined","undefined","undefined","1","l","0","0","0","33","0","0","33","33","0","0","0","33","33","0","33","Tue Apr 24 10:05:50 2018","#757575","low","7","The main experiment item","yes","","experiment.osexp","/Users/tom/github/sft-fraction/procedure","no","mono","no","24","no","white","no","yes","800","legacy","33","33","0","/Users/tom/github/sft-fraction/results/subject-2a.csv","legacy","#757575","low","7","Jazzy James","3.1.9","0","l","NA","space","l","l","l","NA","561","NA","131817","21408","37772","561","NA","2","legacy","1024","2","48000","-16","experiment","2","even","present","192369","192369","NA","195866","1298","192353","244837","245354","1316","133150","154579","245354","245917","NA","244822","Fraction component detection task","33","31993","34","yes","1280"
"97.1428571429","97.1428571429","934.457142857","934.457142857","#808080","no","legacy","legacy","legacy","0","uniform","1","undefined","undefined","undefined","1","l","0","0","0","34","0","0","34","34","0","0","0","34","34","0","34","Tue Apr 24 10:05:50 2018","#000000","high","6","The main experiment item","yes","","experiment.osexp","/Users/tom/github/sft-fraction/procedure","no","mono","no","24","no","white","no","yes","800","legacy","34","34","0","/Users/tom/github/sft-fraction/results/subject-2a.csv","legacy","#757575","low","7","Jazzy James","3.1.9","0","l","NA","space","l","l","l","NA","713","NA","131817","21408","37772","713","NA","2","legacy","1024","2","48000","-16","experiment","2","even","present","192369","192369","NA","195866","1298","192353","245997","246513","1316","133150","154579","246513","247228","NA","245981","Fraction component detection task","34","32706","35","yes","1280"
"97.2222222222","97.2222222222","924.75","924.75","#808080","no","legacy","legacy","legacy","0","uniform","1","undefined","undefined","undefined","1","a","0","0","0","35","0","0","35","35","0","0","0","35","35","0","35","Tue Apr 24 10:05:50 2018","#000000","high","3","The main experiment item","yes","","experiment.osexp","/Users/tom/github/sft-fraction/procedure","no","mono","no","24","no","white","no","yes","800","legacy","35","35","0","/Users/tom/github/sft-fraction/results/subject-2a.csv","legacy","#000000","high","4","Jazzy James","3.1.9","0","a","NA","space","l","l","a","NA","585","NA","131817","21408","37772","585","NA","2","legacy","1024","2","48000","-16","experiment","2","even","absent","192369","192369","NA","195866","1298","192353","247308","247825","1316","133150","154579","247825","248412","NA","247292","Fraction component detection task","35","33291","36","yes","1280"
"97.2972972973","97.2972972973","918.486486486","918.486486486","#808080","no","legacy","legacy","legacy","0","uniform","1","undefined","undefined","undefined","1","l","0","0","0","36","0","0","36","36","0","0","0","36","36","0","36","Tue Apr 24 10:05:50 2018","#000000","high","4","The main experiment item","yes","","experiment.osexp","/Users/tom/github/sft-fraction/procedure","no","mono","no","24","no","white","no","yes","800","legacy","36","36","0","/Users/tom/github/sft-fraction/results/subject-2a.csv","legacy","#757575","low","6","Jazzy James","3.1.9","0","l","NA","space","l","l","l","NA","693","NA","131817","21408","37772","693","NA","2","legacy","1024","2","48000","-16","experiment","2","even","present","192369","192369","NA","195866","1298","192353","248497","249013","1316","133150","154579","249013","249708","NA","248482","Fraction component detection task","36","33984","37","yes","1280"
"97.3684210526","97.3684210526","911","911","#808080","no","legacy","legacy","legacy","0","uniform","1","undefined","undefined","undefined","1","l","0","0","0","37","0","0","37","37","0","0","0","37","37","0","37","Tue Apr 24 10:05:50 2018","#757575","low","6","The main experiment item","yes","","experiment.osexp","/Users/tom/github/sft-fraction/procedure","no","mono","no","24","no","white","no","yes","800","legacy","37","37","0","/Users/tom/github/sft-fraction/results/subject-2a.csv","legacy","#757575","low","7","Jazzy James","3.1.9","0","l","NA","space","l","l","l","NA","634","NA","131817","21408","37772","634","NA","2","legacy","1024","2","48000","-16","experiment","2","even","present","192369","192369","NA","195866","1298","192353","249797","250313","1316","133150","154579","250313","250949","NA","249781","Fraction component detection task","37","34618","38","yes","1280"
"97.4358974359","97.4358974359","903.076923077","903.076923077","#808080","no","legacy","legacy","legacy","0","uniform","1","undefined","undefined","undefined","1","a","0","0","0","38","0","0","38","38","0","0","0","38","38","0","38","Tue Apr 24 10:05:50 2018","#000000","high","4","The main experiment item","yes","","experiment.osexp","/Users/tom/github/sft-fraction/procedure","no","mono","no","24","no","white","no","yes","800","legacy","38","38","0","/Users/tom/github/sft-fraction/results/subject-2a.csv","legacy","#000000","high","3","Jazzy James","3.1.9","0","a","NA","space","l","l","a","NA","602","NA","131817","21408","37772","602","NA","2","legacy","1024","2","48000","-16","experiment","2","even","absent","192369","192369","NA","195866","1298","192353","251028","251544","1316","133150","154579","251544","252149","NA","251013","Fraction component detection task","38","35220","39","yes","1280"
"97.5","97.5","895.9","895.9","#808080","no","legacy","legacy","legacy","0","uniform","1","undefined","undefined","undefined","1","l","0","0","0","39","0","0","39","39","0","0","0","39","39","0","39","Tue Apr 24 10:05:50 2018","#757575","low","3","The main experiment item","yes","","experiment.osexp","/Users/tom/github/sft-fraction/procedure","no","mono","no","24","no","white","no","yes","800","legacy","39","39","0","/Users/tom/github/sft-fraction/results/subject-2a.csv","legacy","#000000","high","7","Jazzy James","3.1.9","0","l","NA","space","l","l","l","NA","616","NA","131817","21408","37772","616","NA","2","legacy","1024","2","48000","-16","experiment","2","even","present","192369","192369","NA","195866","1298","192353","252238","252754","1316","133150","154579","252754","253372","NA","252218","Fraction component detection task","39","35836","40","yes","1280"
"97.5609756098","97.5609756098","891.024390244","891.024390244","#808080","no","legacy","legacy","legacy","0","uniform","1","undefined","undefined","undefined","1","l","0","0","0","40","0","0","40","40","0","0","0","40","40","0","40","Tue Apr 24 10:05:50 2018","#000000","high","3","The main experiment item","yes","","experiment.osexp","/Users/tom/github/sft-fraction/procedure","no","mono","no","24","no","white","no","yes","800","legacy","40","40","0","/Users/tom/github/sft-fraction/results/subject-2a.csv","legacy","#757575","low","8","Jazzy James","3.1.9","0","l","NA","space","l","l","l","NA","696","NA","131817","21408","37772","696","NA","2","legacy","1024","2","48000","-16","experiment","2","even","present","192369","192369","NA","195866","1298","192353","253462","253978","1316","133150","154579","253978","254676","NA","253442","Fraction component detection task","40","36532","41","yes","1280"
"95.2380952381","95.2380952381","885.404761905","885.404761905","#808080","no","legacy","legacy","legacy","0","uniform","0","undefined","undefined","undefined","0","l","0","0","0","41","0","0","41","41","0","0","0","41","41","0","41","Tue Apr 24 10:05:50 2018","#757575","low","6","The main experiment item","yes","","experiment.osexp","/Users/tom/github/sft-fraction/procedure","no","mono","no","24","no","white","no","yes","800","legacy","41","41","0","/Users/tom/github/sft-fraction/results/subject-2a.csv","legacy","#000000","high","3","Jazzy James","3.1.9","0","a","NA","space","l","l","a","NA","655","NA","131817","21408","37772","655","NA","2","legacy","1024","2","48000","-16","experiment","2","even","present","192369","192369","NA","195866","1298","192353","254759","255276","1316","133150","154579","255276","255933","NA","254744","Fraction component detection task","40","37187","42","yes","1280"
"95.3488372093","95.3488372093","884.372093023","884.372093023","#808080","no","legacy","legacy","legacy","0","uniform","1","undefined","undefined","undefined","1","a","0","0","0","42","0","0","42","42","0","0","0","42","42","0","42","Tue Apr 24 10:05:50 2018","#757575","low","3","The main experiment item","yes","","experiment.osexp","/Users/tom/github/sft-fraction/procedure","no","mono","no","24","no","white","no","yes","800","legacy","42","42","0","/Users/tom/github/sft-fraction/results/subject-2a.csv","legacy","#757575","low","3","Jazzy James","3.1.9","0","a","NA","space","l","l","a","NA","841","NA","131817","21408","37772","841","NA","2","legacy","1024","2","48000","-16","experiment","2","even","absent","192369","192369","NA","255952","1298","192353","257034","257553","1316","133150","154579","257553","258396","NA","257014","Fraction component detection task","41","38028","43","yes","1280"
"95.4545454545","95.4545454545","884.272727273","884.272727273","#808080","no","legacy","legacy","legacy","0","uniform","1","undefined","undefined","undefined","1","a","0","0","0","43","0","0","43","43","0","0","0","43","43","0","43","Tue Apr 24 10:05:50 2018","#757575","low","4","The main experiment item","yes","","experiment.osexp","/Users/tom/github/sft-fraction/procedure","no","mono","no","24","no","white","no","yes","800","legacy","43","43","0","/Users/tom/github/sft-fraction/results/subject-2a.csv","legacy","#757575","low","2","Jazzy James","3.1.9","0","a","NA","space","l","l","a","NA","880","NA","131817","21408","37772","880","NA","2","legacy","1024","2","48000","-16","experiment","2","even","absent","192369","192369","NA","255952","1298","192353","258477","258994","1316","133150","154579","258994","259877","NA","258462","Fraction component detection task","42","38908","44","yes","1280"
"95.5555555556","95.5555555556","878.088888889","878.088888889","#808080","no","legacy","legacy","legacy","0","uniform","1","undefined","undefined","undefined","1","l","0","0","0","44","0","0","44","44","0","0","0","44","44","0","44","Tue Apr 24 10:05:50 2018","#757575","low","7","The main experiment item","yes","","experiment.osexp","/Users/tom/github/sft-fraction/procedure","no","mono","no","24","no","white","no","yes","800","legacy","44","44","0","/Users/tom/github/sft-fraction/results/subject-2a.csv","legacy","#000000","high","7","Jazzy James","3.1.9","0","l","NA","space","l","l","l","NA","606","NA","131817","21408","37772","606","NA","2","legacy","1024","2","48000","-16","experiment","2","even","present","192369","192369","NA","255952","1298","192353","259968","260484","1316","133150","154579","260484","261093","NA","259948","Fraction component detection task","43","39514","45","yes","1280"
"95.652173913","95.652173913","877.47826087","877.47826087","#808080","no","legacy","legacy","legacy","0","uniform","1","undefined","undefined","undefined","1","a","0","0","0","45","0","0","45","45","0","0","0","45","45","0","45","Tue Apr 24 10:05:50 2018","#000000","high","2","The main experiment item","yes","","experiment.osexp","/Users/tom/github/sft-fraction/procedure","no","mono","no","24","no","white","no","yes","800","legacy","45","45","0","/Users/tom/github/sft-fraction/results/subject-2a.csv","legacy","#000000","high","3","Jazzy James","3.1.9","0","a","NA","space","l","l","a","NA","850","NA","131817","21408","37772","850","NA","2","legacy","1024","2","48000","-16","experiment","2","even","absent","192369","192369","NA","255952","1298","192353","261180","261697","1316","133150","154579","261697","262550","NA","261159","Fraction component detection task","44","40364","46","yes","1280"
"95.7446808511","95.7446808511","871.14893617","871.14893617","#808080","no","legacy","legacy","legacy","0","uniform","1","undefined","undefined","undefined","1","l","0","0","0","46","0","0","46","46","0","0","0","46","46","0","46","Tue Apr 24 10:05:50 2018","#757575","low","6","The main experiment item","yes","","experiment.osexp","/Users/tom/github/sft-fraction/procedure","no","mono","no","24","no","white","no","yes","800","legacy","46","46","0","/Users/tom/github/sft-fraction/results/subject-2a.csv","legacy","#000000","high","8","Jazzy James","3.1.9","0","l","NA","space","l","l","l","NA","580","NA","131817","21408","37772","580","NA","2","legacy","1024","2","48000","-16","experiment","2","even","present","192369","192369","NA","255952","1298","192353","262635","263151","1316","133150","154579","263151","263733","NA","262616","Fraction component detection task","45","40944","47","yes","1280"
"95.8333333333","95.8333333333","866.354166667","866.354166667","#808080","no","legacy","legacy","legacy","0","uniform","1","undefined","undefined","undefined","1","l","0","0","0","47","0","0","47","47","0","0","0","47","47","0","47","Tue Apr 24 10:05:50 2018","#000000","high","8","The main experiment item","yes","","experiment.osexp","/Users/tom/github/sft-fraction/procedure","no","mono","no","24","no","white","no","yes","800","legacy","47","47","0","/Users/tom/github/sft-fraction/results/subject-2a.csv","legacy","#757575","low","6","Jazzy James","3.1.9","0","l","NA","space","l","l","l","NA","641","NA","131817","21408","37772","641","NA","2","legacy","1024","2","48000","-16","experiment","2","even","present","192369","192369","NA","255952","1298","192353","263813","264330","1316","133150","154579","264330","264974","NA","263798","Fraction component detection task","46","41585","48","yes","1280"
"95.9183673469","95.9183673469","862.040816327","862.040816327","#808080","no","legacy","legacy","legacy","0","uniform","1","undefined","undefined","undefined","1","l","0","0","0","48","0","0","48","48","0","0","0","48","48","0","48","Tue Apr 24 10:05:50 2018","#000000","high","2","The main experiment item","yes","","experiment.osexp","/Users/tom/github/sft-fraction/procedure","no","mono","no","24","no","white","no","yes","800","legacy","48","48","0","/Users/tom/github/sft-fraction/results/subject-2a.csv","legacy","#000000","high","7","Jazzy James","3.1.9","0","l","NA","space","l","l","l","NA","655","NA","131817","21408","37772","655","NA","2","legacy","1024","2","48000","-16","experiment","2","even","present","192369","192369","NA","255952","1298","192353","265054","265571","1316","133150","154579","265572","266229","NA","265039","Fraction component detection task","47","42240","49","yes","1280"
"96","96","859.16","859.16","#808080","no","legacy","legacy","legacy","0","uniform","1","undefined","undefined","undefined","1","l","0","0","0","49","0","0","49","49","0","0","0","49","49","0","49","Tue Apr 24 10:05:50 2018","#000000","high","7","The main experiment item","yes","","experiment.osexp","/Users/tom/github/sft-fraction/procedure","no","mono","no","24","no","white","no","yes","800","legacy","49","49","0","/Users/tom/github/sft-fraction/results/subject-2a.csv","legacy","#757575","low","6","Jazzy James","3.1.9","0","l","NA","space","l","l","l","NA","718","NA","131817","21408","37772","718","NA","2","legacy","1024","2","48000","-16","experiment","2","even","present","192369","192369","NA","255952","1298","192353","266309","266829","1316","133150","154579","266829","267549","NA","266294","Fraction component detection task","48","42958","50","yes","1280"
"96.0784313725","96.0784313725","853.529411765","853.529411765","#808080","no","legacy","legacy","legacy","0","uniform","1","undefined","undefined","undefined","1","l","0","0","0","50","0","0","50","50","0","0","0","50","50","0","50","Tue Apr 24 10:05:50 2018","#757575","low","7","The main experiment item","yes","","experiment.osexp","/Users/tom/github/sft-fraction/procedure","no","mono","no","24","no","white","no","yes","800","legacy","50","50","0","/Users/tom/github/sft-fraction/results/subject-2a.csv","legacy","#757575","low","2","Jazzy James","3.1.9","0","l","NA","space","l","l","l","NA","572","NA","131817","21408","37772","572","NA","2","legacy","1024","2","48000","-16","experiment","2","even","present","192369","192369","NA","255952","1298","192353","267634","268151","1316","133150","154579","268151","268725","NA","267614","Fraction component detection task","49","43530","51","yes","1280"
"96.1538461538","96.1538461538","846.461538462","846.461538462","#808080","no","legacy","legacy","legacy","0","uniform","1","undefined","undefined","undefined","1","a","0","0","0","51","0","0","51","51","0","0","0","51","51","0","51","Tue Apr 24 10:05:50 2018","#757575","low","2","The main experiment item","yes","","experiment.osexp","/Users/tom/github/sft-fraction/procedure","no","mono","no","24","no","white","no","yes","800","legacy","51","51","0","/Users/tom/github/sft-fraction/results/subject-2a.csv","legacy","#757575","low","4","Jazzy James","3.1.9","0","a","NA","space","l","l","a","NA","486","NA","131817","21408","37772","486","NA","2","legacy","1024","2","48000","-16","experiment","2","even","absent","192369","192369","NA","255952","1298","192353","268809","269325","1316","133150","154579","269325","269813","NA","268790","Fraction component detection task","50","44016","52","yes","1280"
"96.2264150943","96.2264150943","840.358490566","840.358490566","#808080","no","legacy","legacy","legacy","0","uniform","1","undefined","undefined","undefined","1","l","0","0","0","52","0","0","52","52","0","0","0","52","52","0","52","Tue Apr 24 10:05:50 2018","#000000","high","6","The main experiment item","yes","","experiment.osexp","/Users/tom/github/sft-fraction/procedure","no","mono","no","24","no","white","no","yes","800","legacy","52","52","0","/Users/tom/github/sft-fraction/results/subject-2a.csv","legacy","#000000","high","7","Jazzy James","3.1.9","0","l","NA","space","l","l","l","NA","523","NA","131817","21408","37772","523","NA","2","legacy","1024","2","48000","-16","experiment","2","even","present","192369","192369","NA","255952","1298","192353","269892","270409","1316","133150","154579","270409","270934","NA","269877","Fraction component detection task","51","44539","53","yes","1280"
"96.2962962963","96.2962962963","833.685185185","833.685185185","#808080","no","legacy","legacy","legacy","0","uniform","1","undefined","undefined","undefined","1","a","0","0","0","53","0","0","53","53","0","0","0","53","53","0","53","Tue Apr 24 10:05:50 2018","#000000","high","2","The main experiment item","yes","","experiment.osexp","/Users/tom/github/sft-fraction/procedure","no","mono","no","24","no","white","no","yes","800","legacy","53","53","0","/Users/tom/github/sft-fraction/results/subject-2a.csv","legacy","#000000","high","2","Jazzy James","3.1.9","0","a","NA","space","l","l","a","NA","480","NA","131817","21408","37772","480","NA","2","legacy","1024","2","48000","-16","experiment","2","even","absent","192369","192369","NA","255952","1298","192353","271013","271531","1316","133150","154579","271531","272013","NA","270998","Fraction component detection task","52","45019","54","yes","1280"
"96.3636363636","96.3636363636","828.854545455","828.854545455","#808080","no","legacy","legacy","legacy","0","uniform","1","undefined","undefined","undefined","1","l","0","0","0","54","0","0","54","54","0","0","0","54","54","0","54","Tue Apr 24 10:05:50 2018","#000000","high","4","The main experiment item","yes","","experiment.osexp","/Users/tom/github/sft-fraction/procedure","no","mono","no","24","no","white","no","yes","800","legacy","54","54","0","/Users/tom/github/sft-fraction/results/subject-2a.csv","legacy","#757575","low","8","Jazzy James","3.1.9","0","l","NA","space","l","l","l","NA","568","NA","131817","21408","37772","568","NA","2","legacy","1024","2","48000","-16","experiment","2","even","present","192369","192369","NA","255952","1298","192353","272102","272619","1316","133150","154579","272619","273189","NA","272083","Fraction component detection task","53","45587","55","yes","1280"
"96.4285714286","96.4285714286","823.160714286","823.160714286","#808080","no","legacy","legacy","legacy","0","uniform","1","undefined","undefined","undefined","1","l","0","0","0","55","0","0","55","55","0","0","0","55","55","0","55","Tue Apr 24 10:05:50 2018","#000000","high","8","The main experiment item","yes","","experiment.osexp","/Users/tom/github/sft-fraction/procedure","no","mono","no","24","no","white","no","yes","800","legacy","55","55","0","/Users/tom/github/sft-fraction/results/subject-2a.csv","legacy","#757575","low","2","Jazzy James","3.1.9","0","l","NA","space","l","l","l","NA","510","NA","131817","21408","37772","510","NA","2","legacy","1024","2","48000","-16","experiment","2","even","present","192369","192369","NA","255952","1298","192353","273270","273788","1316","133150","154579","273789","274302","NA","273254","Fraction component detection task","54","46097","56","yes","1280"
"96.4912280702","96.4912280702","832.175438596","832.175438596","#808080","no","legacy","legacy","legacy","0","uniform","1","undefined","undefined","undefined","1","l","0","0","0","56","0","0","56","56","0","0","0","56","56","0","56","Tue Apr 24 10:05:50 2018","#000000","high","3","The main experiment item","yes","","experiment.osexp","/Users/tom/github/sft-fraction/procedure","no","mono","no","24","no","white","no","yes","800","legacy","56","56","0","/Users/tom/github/sft-fraction/results/subject-2a.csv","legacy","#000000","high","6","Jazzy James","3.1.9","0","l","NA","space","l","l","l","NA","1337","NA","131817","21408","37772","1337","NA","2","legacy","1024","2","48000","-16","experiment","2","even","present","192369","192369","NA","255952","1298","192353","274390","274906","1316","133150","154579","274906","276245","NA","274373","Fraction component detection task","55","47434","57","yes","1280"
"96.5517241379","96.5517241379","826.189655172","826.189655172","#808080","no","legacy","legacy","legacy","0","uniform","1","undefined","undefined","undefined","1","l","0","0","0","57","0","0","57","57","0","0","0","57","57","0","57","Tue Apr 24 10:05:50 2018","#757575","low","6","The main experiment item","yes","","experiment.osexp","/Users/tom/github/sft-fraction/procedure","no","mono","no","24","no","white","no","yes","800","legacy","57","57","0","/Users/tom/github/sft-fraction/results/subject-2a.csv","legacy","#757575","low","2","Jazzy James","3.1.9","0","l","NA","space","l","l","l","NA","485","NA","131817","21408","37772","485","NA","2","legacy","1024","2","48000","-16","experiment","2","even","present","192369","192369","NA","255952","1298","192353","276328","276846","1316","133150","154579","276846","277334","NA","276308","Fraction component detection task","56","47919","58","yes","1280"
"96.6101694915","96.6101694915","824.474576271","824.474576271","#808080","no","legacy","legacy","legacy","0","uniform","1","undefined","undefined","undefined","1","a","0","0","0","58","0","0","58","58","0","0","0","58","58","0","58","Tue Apr 24 10:05:50 2018","#757575","low","2","The main experiment item","yes","","experiment.osexp","/Users/tom/github/sft-fraction/procedure","no","mono","no","24","no","white","no","yes","800","legacy","58","58","0","/Users/tom/github/sft-fraction/results/subject-2a.csv","legacy","#757575","low","3","Jazzy James","3.1.9","0","a","NA","space","l","l","a","NA","725","NA","131817","21408","37772","725","NA","2","legacy","1024","2","48000","-16","experiment","2","even","absent","192369","192369","NA","255952","1298","192353","277421","277941","1316","133150","154579","277942","278669","NA","277403","Fraction component detection task","57","48644","59","yes","1280"
"95","95","819.7","819.7","#808080","no","legacy","legacy","legacy","0","uniform","0","undefined","undefined","undefined","0","a","0","0","0","59","0","0","59","59","0","0","0","59","59","0","59","Tue Apr 24 10:05:50 2018","#000000","high","4","The main experiment item","yes","","experiment.osexp","/Users/tom/github/sft-fraction/procedure","no","mono","no","24","no","white","no","yes","800","legacy","59","59","0","/Users/tom/github/sft-fraction/results/subject-2a.csv","legacy","#757575","low","2","Jazzy James","3.1.9","0","l","NA","space","l","l","l","NA","538","NA","131817","21408","37772","538","NA","2","legacy","1024","2","48000","-16","experiment","2","even","absent","192369","192369","NA","255952","1298","192353","278757","279273","1316","133150","154579","279273","279814","NA","278742","Fraction component detection task","57","49182","60","yes","1280"
"95.0819672131","95.0819672131","814.836065574","814.836065574","#808080","no","legacy","legacy","legacy","0","uniform","1","undefined","undefined","undefined","1","l","0","0","0","60","0","0","60","60","0","0","0","60","60","0","60","Tue Apr 24 10:05:50 2018","#757575","low","7","The main experiment item","yes","","experiment.osexp","/Users/tom/github/sft-fraction/procedure","no","mono","no","24","no","white","no","yes","800","legacy","60","60","0","/Users/tom/github/sft-fraction/results/subject-2a.csv","legacy","#000000","high","6","Jazzy James","3.1.9","0","l","NA","space","l","l","l","NA","523","NA","131817","21408","37772","523","NA","2","legacy","1024","2","48000","-16","experiment","2","even","present","192369","192369","NA","279834","1298","192353","280921","281441","1316","133150","154579","281441","281967","NA","280899","Fraction component detection task","58","49705","61","yes","1280"
"95.1612903226","95.1612903226","811.951612903","811.951612903","#808080","no","legacy","legacy","legacy","0","uniform","1","undefined","undefined","undefined","1","a","0","0","0","61","0","0","61","61","0","0","0","61","61","0","61","Tue Apr 24 10:05:50 2018","#000000","high","4","The main experiment item","yes","","experiment.osexp","/Users/tom/github/sft-fraction/procedure","no","mono","no","24","no","white","no","yes","800","legacy","61","61","0","/Users/tom/github/sft-fraction/results/subject-2a.csv","legacy","#000000","high","2","Jazzy James","3.1.9","0","a","NA","space","l","l","a","NA","636","NA","131817","21408","37772","636","NA","2","legacy","1024","2","48000","-16","experiment","2","even","absent","192369","192369","NA","279834","1298","192353","282051","282567","1316","133150","154579","282568","283206","NA","282031","Fraction component detection task","59","50341","62","yes","1280"
"95.2380952381","95.2380952381","807.174603175","807.174603175","#808080","no","legacy","legacy","legacy","0","uniform","1","undefined","undefined","undefined","1","l","0","0","0","62","0","0","62","62","0","0","0","62","62","0","62","Tue Apr 24 10:05:50 2018","#757575","low","2","The main experiment item","yes","","experiment.osexp","/Users/tom/github/sft-fraction/procedure","no","mono","no","24","no","white","no","yes","800","legacy","62","62","0","/Users/tom/github/sft-fraction/results/subject-2a.csv","legacy","#757575","low","8","Jazzy James","3.1.9","0","l","NA","space","l","l","l","NA","511","NA","131817","21408","37772","511","NA","2","legacy","1024","2","48000","-16","experiment","2","even","present","192369","192369","NA","279834","1298","192353","283287","283804","1316","133150","154579","283804","284318","NA","283271","Fraction component detection task","60","50852","63","yes","1280"
"95.3125","95.3125","803.203125","803.203125","#808080","no","legacy","legacy","legacy","0","uniform","1","undefined","undefined","undefined","1","l","0","0","0","63","0","0","63","63","0","0","0","63","63","0","63","Tue Apr 24 10:05:50 2018","#000000","high","7","The main experiment item","yes","","experiment.osexp","/Users/tom/github/sft-fraction/procedure","no","mono","no","24","no","white","no","yes","800","legacy","63","63","0","/Users/tom/github/sft-fraction/results/subject-2a.csv","legacy","#000000","high","6","Jazzy James","3.1.9","0","l","NA","space","l","l","l","NA","553","NA","131817","21408","37772","553","NA","2","legacy","1024","2","48000","-16","experiment","2","even","present","192369","192369","NA","279834","1298","192353","284397","284914","1316","133150","154579","284914","285470","NA","284382","Fraction component detection task","61","51405","64","yes","1280"
"95.3846153846","95.3846153846","800.538461538","800.538461538","#808080","no","legacy","legacy","legacy","0","uniform","1","undefined","undefined","undefined","1","l","0","0","0","64","0","0","64","64","0","0","0","64","64","0","64","Tue Apr 24 10:05:50 2018","#757575","low","6","The main experiment item","yes","","experiment.osexp","/Users/tom/github/sft-fraction/procedure","no","mono","no","24","no","white","no","yes","800","legacy","64","64","0","/Users/tom/github/sft-fraction/results/subject-2a.csv","legacy","#757575","low","3","Jazzy James","3.1.9","0","l","NA","space","l","l","l","NA","630","NA","131817","21408","37772","630","NA","2","legacy","1024","2","48000","-16","experiment","2","even","present","192369","192369","NA","279834","1298","192353","285552","286069","1316","133150","154579","286069","286702","NA","285536","Fraction component detection task","62","52035","65","yes","1280"
"95.4545454545","95.4545454545","796.772727273","796.772727273","#808080","no","legacy","legacy","legacy","0","uniform","1","undefined","undefined","undefined","1","a","0","0","0","65","0","0","65","65","0","0","0","65","65","0","65","Tue Apr 24 10:05:50 2018","#000000","high","4","The main experiment item","yes","","experiment.osexp","/Users/tom/github/sft-fraction/procedure","no","mono","no","24","no","white","no","yes","800","legacy","65","65","0","/Users/tom/github/sft-fraction/results/subject-2a.csv","legacy","#000000","high","2","Jazzy James","3.1.9","0","a","NA","space","l","l","a","NA","552","NA","131817","21408","37772","552","NA","2","legacy","1024","2","48000","-16","experiment","2","even","absent","192369","192369","NA","279834","1298","192353","286782","287299","1316","133150","154579","287299","287854","NA","286767","Fraction component detection task","63","52587","66","yes","1280"
"95.5223880597","95.5223880597","795.47761194","795.47761194","#808080","no","legacy","legacy","legacy","0","uniform","1","undefined","undefined","undefined","1","a","0","0","0","66","0","0","66","66","0","0","0","66","66","0","66","Tue Apr 24 10:05:50 2018","#000000","high","2","The main experiment item","yes","","experiment.osexp","/Users/tom/github/sft-fraction/procedure","no","mono","no","24","no","white","no","yes","800","legacy","66","66","0","/Users/tom/github/sft-fraction/results/subject-2a.csv","legacy","#757575","low","3","Jazzy James","3.1.9","0","a","NA","space","l","l","a","NA","710","NA","131817","21408","37772","710","NA","2","legacy","1024","2","48000","-16","experiment","2","even","absent","192369","192369","NA","279834","1298","192353","287941","288462","1316","133150","154579","288462","289175","NA","287924","Fraction component detection task","64","53297","67","yes","1280"
"95.5882352941","95.5882352941","791.558823529","791.558823529","#808080","no","legacy","legacy","legacy","0","uniform","1","undefined","undefined","undefined","1","l","0","0","0","67","0","0","67","67","0","0","0","67","67","0","67","Tue Apr 24 10:05:50 2018","#000000","high","3","The main experiment item","yes","","experiment.osexp","/Users/tom/github/sft-fraction/procedure","no","mono","no","24","no","white","no","yes","800","legacy","67","67","0","/Users/tom/github/sft-fraction/results/subject-2a.csv","legacy","#757575","low","6","Jazzy James","3.1.9","0","l","NA","space","l","l","l","NA","529","NA","131817","21408","37772","529","NA","2","legacy","1024","2","48000","-16","experiment","2","even","present","192369","192369","NA","279834","1298","192353","289262","289778","1316","133150","154579","289779","290310","NA","289246","Fraction component detection task","65","53826","68","yes","1280"
"95.652173913","95.652173913","788.811594203","788.811594203","#808080","no","legacy","legacy","legacy","0","uniform","1","undefined","undefined","undefined","1","a","0","0","0","68","0","0","68","68","0","0","0","68","68","0","68","Tue Apr 24 10:05:50 2018","#000000","high","3","The main experiment item","yes","","experiment.osexp","/Users/tom/github/sft-fraction/procedure","no","mono","no","24","no","white","no","yes","800","legacy","68","68","0","/Users/tom/github/sft-fraction/results/subject-2a.csv","legacy","#757575","low","3","Jazzy James","3.1.9","0","a","NA","space","l","l","a","NA","602","NA","131817","21408","37772","602","NA","2","legacy","1024","2","48000","-16","experiment","2","even","absent","192369","192369","NA","279834","1298","192353","290396","290913","1316","133150","154579","290914","291519","NA","290379","Fraction component detection task","66","54428","69","yes","1280"
"95.7142857143","95.7142857143","785.771428571","785.771428571","#808080","no","legacy","legacy","legacy","0","uniform","1","undefined","undefined","undefined","1","l","0","0","0","69","0","0","69","69","0","0","0","69","69","0","69","Tue Apr 24 10:05:50 2018","#757575","low","6","The main experiment item","yes","","experiment.osexp","/Users/tom/github/sft-fraction/procedure","no","mono","no","24","no","white","no","yes","800","legacy","69","69","0","/Users/tom/github/sft-fraction/results/subject-2a.csv","legacy","#000000","high","4","Jazzy James","3.1.9","0","l","NA","space","l","l","l","NA","576","NA","131817","21408","37772","576","NA","2","legacy","1024","2","48000","-16","experiment","2","even","present","192369","192369","NA","279834","1298","192353","291599","292116","1316","133150","154579","292116","292695","NA","291584","Fraction component detection task","67","55004","70","yes","1280"
"95.7746478873","95.7746478873","782.633802817","782.633802817","#808080","no","legacy","legacy","legacy","0","uniform","1","undefined","undefined","undefined","1","l","0","0","0","70","0","0","70","70","0","0","0","70","70","0","70","Tue Apr 24 10:05:50 2018","#000000","high","6","The main experiment item","yes","","experiment.osexp","/Users/tom/github/sft-fraction/procedure","no","mono","no","24","no","white","no","yes","800","legacy","70","70","0","/Users/tom/github/sft-fraction/results/subject-2a.csv","legacy","#757575","low","3","Jazzy James","3.1.9","0","l","NA","space","l","l","l","NA","563","NA","131817","21408","37772","563","NA","2","legacy","1024","2","48000","-16","experiment","2","even","present","192369","192369","NA","279834","1298","192353","292780","293297","1316","133150","154579","293297","293862","NA","292761","Fraction component detection task","68","55567","71","yes","1280"
"94.4444444444","94.4444444444","781.236111111","781.236111111","#808080","no","legacy","legacy","legacy","0","uniform","0","undefined","undefined","undefined","0","l","0","0","0","71","0","0","71","71","0","0","0","71","71","0","71","Tue Apr 24 10:05:50 2018","#000000","high","8","The main experiment item","yes","","experiment.osexp","/Users/tom/github/sft-fraction/procedure","no","mono","no","24","no","white","no","yes","800","legacy","71","71","0","/Users/tom/github/sft-fraction/results/subject-2a.csv","legacy","#000000","high","2","Jazzy James","3.1.9","0","a","NA","space","l","l","a","NA","682","NA","131817","21408","37772","682","NA","2","legacy","1024","2","48000","-16","experiment","2","even","present","192369","192369","NA","279834","1298","192353","293950","294466","1316","133150","154579","294466","295151","NA","293934","Fraction component detection task","68","56249","72","yes","1280"
"94.5205479452","94.5205479452","782.273972603","782.273972603","#808080","no","legacy","legacy","legacy","0","uniform","1","undefined","undefined","undefined","1","l","0","0","0","72","0","0","72","72","0","0","0","72","72","0","72","Tue Apr 24 10:05:50 2018","#757575","low","7","The main experiment item","yes","","experiment.osexp","/Users/tom/github/sft-fraction/procedure","no","mono","no","24","no","white","no","yes","800","legacy","72","72","0","/Users/tom/github/sft-fraction/results/subject-2a.csv","legacy","#000000","high","2","Jazzy James","3.1.9","0","l","NA","space","l","l","l","NA","857","NA","131817","21408","37772","857","NA","2","legacy","1024","2","48000","-16","experiment","2","even","present","192369","192369","NA","295169","1298","192353","296251","296771","1316","133150","154579","296771","297630","NA","296235","Fraction component detection task","69","57106","73","yes","1280"
"94.5945945946","94.5945945946","779.243243243","779.243243243","#808080","no","legacy","legacy","legacy","0","uniform","1","undefined","undefined","undefined","1","a","0","0","0","73","0","0","73","73","0","0","0","73","73","0","73","Tue Apr 24 10:05:50 2018","#757575","low","3","The main experiment item","yes","","experiment.osexp","/Users/tom/github/sft-fraction/procedure","no","mono","no","24","no","white","no","yes","800","legacy","73","73","0","/Users/tom/github/sft-fraction/results/subject-2a.csv","legacy","#000000","high","3","Jazzy James","3.1.9","0","a","NA","space","l","l","a","NA","558","NA","131817","21408","37772","558","NA","2","legacy","1024","2","48000","-16","experiment","2","even","absent","192369","192369","NA","295169","1298","192353","297714","298230","1316","133150","154579","298230","298791","NA","297694","Fraction component detection task","70","57664","74","yes","1280"
"93.3333333333","93.3333333333","776.853333333","776.853333333","#808080","no","legacy","legacy","legacy","0","uniform","0","undefined","undefined","undefined","0","a","0","0","0","74","0","0","74","74","0","0","0","74","74","0","74","Tue Apr 24 10:05:50 2018","#000000","high","3","The main experiment item","yes","","experiment.osexp","/Users/tom/github/sft-fraction/procedure","no","mono","no","24","no","white","no","yes","800","legacy","74","74","0","/Users/tom/github/sft-fraction/results/subject-2a.csv","legacy","#000000","high","4","Jazzy James","3.1.9","0","l","NA","space","l","l","l","NA","600","NA","131817","21408","37772","600","NA","2","legacy","1024","2","48000","-16","experiment","2","even","absent","192369","192369","NA","295169","1298","192353","298871","299389","1316","133150","154579","299389","299991","NA","298856","Fraction component detection task","70","58264","75","yes","1280"
"93.4210526316","93.4210526316","779.894736842","779.894736842","#808080","no","legacy","legacy","legacy","0","uniform","1","undefined","undefined","undefined","1","l","0","0","0","75","0","0","75","75","0","0","0","75","75","0","75","Tue Apr 24 10:05:50 2018","#757575","low","2","The main experiment item","yes","","experiment.osexp","/Users/tom/github/sft-fraction/procedure","no","mono","no","24","no","white","no","yes","800","legacy","75","75","0","/Users/tom/github/sft-fraction/results/subject-2a.csv","legacy","#757575","low","7","Jazzy James","3.1.9","0","l","NA","space","l","l","l","NA","1008","NA","131817","21408","37772","1008","NA","2","legacy","1024","2","48000","-16","experiment","2","even","present","192369","192369","NA","300013","1298","192353","301099","301620","1316","133150","154579","301620","302631","NA","301079","Fraction component detection task","71","59272","76","yes","1280"
"93.5064935065","93.5064935065","788.493506494","788.493506494","#808080","no","legacy","legacy","legacy","0","uniform","1","undefined","undefined","undefined","1","a","0","0","0","76","0","0","76","76","0","0","0","76","76","0","76","Tue Apr 24 10:05:50 2018","#757575","low","2","The main experiment item","yes","","experiment.osexp","/Users/tom/github/sft-fraction/procedure","no","mono","no","24","no","white","no","yes","800","legacy","76","76","0","/Users/tom/github/sft-fraction/results/subject-2a.csv","legacy","#000000","high","3","Jazzy James","3.1.9","0","a","NA","space","l","l","a","NA","1442","NA","131817","21408","37772","1442","NA","2","legacy","1024","2","48000","-16","experiment","2","even","absent","192369","192369","NA","300013","1298","192353","302717","303233","1316","133150","154579","303234","304679","NA","302701","Fraction component detection task","72","60714","77","yes","1280"
"93.5897435897","93.5897435897","785.679487179","785.679487179","#808080","no","legacy","legacy","legacy","0","uniform","1","undefined","undefined","undefined","1","l","0","0","0","77","0","0","77","77","0","0","0","77","77","0","77","Tue Apr 24 10:05:50 2018","#000000","high","8","The main experiment item","yes","","experiment.osexp","/Users/tom/github/sft-fraction/procedure","no","mono","no","24","no","white","no","yes","800","legacy","77","77","0","/Users/tom/github/sft-fraction/results/subject-2a.csv","legacy","#000000","high","8","Jazzy James","3.1.9","0","l","NA","space","l","l","l","NA","569","NA","131817","21408","37772","569","NA","2","legacy","1024","2","48000","-16","experiment","2","even","present","192369","192369","NA","300013","1298","192353","304758","305274","1316","133150","154579","305275","305847","NA","304743","Fraction component detection task","73","61283","78","yes","1280"
"93.6708860759","93.6708860759","783.911392405","783.911392405","#808080","no","legacy","legacy","legacy","0","uniform","1","undefined","undefined","undefined","1","l","0","0","0","78","0","0","78","78","0","0","0","78","78","0","78","Tue Apr 24 10:05:50 2018","#757575","low","2","The main experiment item","yes","","experiment.osexp","/Users/tom/github/sft-fraction/procedure","no","mono","no","24","no","white","no","yes","800","legacy","78","78","0","/Users/tom/github/sft-fraction/results/subject-2a.csv","legacy","#000000","high","7","Jazzy James","3.1.9","0","l","NA","space","l","l","l","NA","646","NA","131817","21408","37772","646","NA","2","legacy","1024","2","48000","-16","experiment","2","even","present","192369","192369","NA","300013","1298","192353","305929","306446","1316","133150","154579","306446","307095","NA","305913","Fraction component detection task","74","61929","79","yes","1280"
"93.75","93.75","782.3","782.3","#808080","no","legacy","legacy","legacy","0","uniform","1","undefined","undefined","undefined","1","a","0","0","0","79","0","0","79","79","0","0","0","79","79","0","79","Tue Apr 24 10:05:50 2018","#000000","high","4","The main experiment item","yes","","experiment.osexp","/Users/tom/github/sft-fraction/procedure","no","mono","no","24","no","white","no","yes","800","legacy","79","79","0","/Users/tom/github/sft-fraction/results/subject-2a.csv","legacy","#757575","low","2","Jazzy James","3.1.9","0","a","NA","space","l","l","a","NA","655","NA","131817","21408","37772","655","NA","2","legacy","1024","2","48000","-16","experiment","2","even","absent","192369","192369","NA","300013","1298","192353","307176","307692","1316","133150","154579","307693","308351","NA","307161","Fraction component detection task","75","62584","80","yes","1280"
"93.8271604938","93.8271604938","780.530864198","780.530864198","#808080","no","legacy","legacy","legacy","0","uniform","1","undefined","undefined","undefined","1","a","0","0","0","80","0","0","80","80","0","0","0","80","80","0","80","Tue Apr 24 10:05:50 2018","#000000","high","3","The main experiment item","yes","","experiment.osexp","/Users/tom/github/sft-fraction/procedure","no","mono","no","24","no","white","no","yes","800","legacy","80","80","0","/Users/tom/github/sft-fraction/results/subject-2a.csv","legacy","#757575","low","4","Jazzy James","3.1.9","0","a","NA","space","l","l","a","NA","639","NA","131817","21408","37772","639","NA","2","legacy","1024","2","48000","-16","experiment","2","even","absent","192369","192369","NA","300013","1298","192353","308431","308949","1316","133150","154579","308949","309591","NA","308416","Fraction component detection task","76","63223","81","yes","1280"
"93.9024390244","93.9024390244","778.134146341","778.134146341","#808080","no","legacy","legacy","legacy","0","uniform","1","undefined","undefined","undefined","1","l","0","0","0","81","0","0","81","81","0","0","0","81","81","0","81","Tue Apr 24 10:05:50 2018","#757575","low","6","The main experiment item","yes","","experiment.osexp","/Users/tom/github/sft-fraction/procedure","no","mono","no","24","no","white","no","yes","800","legacy","81","81","0","/Users/tom/github/sft-fraction/results/subject-2a.csv","legacy","#000000","high","7","Jazzy James","3.1.9","0","l","NA","space","l","l","l","NA","584","NA","131817","21408","37772","584","NA","2","legacy","1024","2","48000","-16","experiment","2","even","present","192369","192369","NA","300013","1298","192353","309672","310188","1316","133150","154579","310189","310775","NA","309657","Fraction component detection task","77","63807","82","yes","1280"
"93.9759036145","93.9759036145","776.445783133","776.445783133","#808080","no","legacy","legacy","legacy","0","uniform","1","undefined","undefined","undefined","1","l","0","0","0","82","0","0","82","82","0","0","0","82","82","0","82","Tue Apr 24 10:05:50 2018","#757575","low","6","The main experiment item","yes","","experiment.osexp","/Users/tom/github/sft-fraction/procedure","no","mono","no","24","no","white","no","yes","800","legacy","82","82","0","/Users/tom/github/sft-fraction/results/subject-2a.csv","legacy","#757575","low","6","Jazzy James","3.1.9","0","l","NA","space","l","l","l","NA","638","NA","131817","21408","37772","638","NA","2","legacy","1024","2","48000","-16","experiment","2","even","present","192369","192369","NA","300013","1298","192353","310861","311382","1316","133150","154579","311382","312023","NA","310843","Fraction component detection task","78","64445","83","yes","1280"
"94.0476190476","94.0476190476","773.011904762","773.011904762","#808080","no","legacy","legacy","legacy","0","uniform","1","undefined","undefined","undefined","1","a","0","0","0","83","0","0","83","83","0","0","0","83","83","0","83","Tue Apr 24 10:05:50 2018","#000000","high","3","The main experiment item","yes","","experiment.osexp","/Users/tom/github/sft-fraction/procedure","no","mono","no","24","no","white","no","yes","800","legacy","83","83","0","/Users/tom/github/sft-fraction/results/subject-2a.csv","legacy","#000000","high","3","Jazzy James","3.1.9","0","a","NA","space","l","l","a","NA","488","NA","131817","21408","37772","488","NA","2","legacy","1024","2","48000","-16","experiment","2","even","absent","192369","192369","NA","300013","1298","192353","312104","312621","1316","133150","154579","312621","313111","NA","312089","Fraction component detection task","79","64933","84","yes","1280"
"94.1176470588","94.1176470588","769.905882353","769.905882353","#808080","no","legacy","legacy","legacy","0","uniform","1","undefined","undefined","undefined","1","l","0","0","0","84","0","0","84","84","0","0","0","84","84","0","84","Tue Apr 24 10:05:50 2018","#757575","low","8","The main experiment item","yes","","experiment.osexp","/Users/tom/github/sft-fraction/procedure","no","mono","no","24","no","white","no","yes","800","legacy","84","84","0","/Users/tom/github/sft-fraction/results/subject-2a.csv","legacy","#000000","high","8","Jazzy James","3.1.9","0","l","NA","space","l","l","l","NA","509","NA","131817","21408","37772","509","NA","2","legacy","1024","2","48000","-16","experiment","2","even","present","192369","192369","NA","300013","1298","192353","313196","313712","1316","133150","154579","313712","314224","NA","313181","Fraction component detection task","80","65442","85","yes","1280"
"94.1860465116","94.1860465116","767.593023256","767.593023256","#808080","no","legacy","legacy","legacy","0","uniform","1","undefined","undefined","undefined","1","a","0","0","0","85","0","0","85","85","0","0","0","85","85","0","85","Tue Apr 24 10:05:50 2018","#757575","low","3","The main experiment item","yes","","experiment.osexp","/Users/tom/github/sft-fraction/procedure","no","mono","no","24","no","white","no","yes","800","legacy","85","85","0","/Users/tom/github/sft-fraction/results/subject-2a.csv","legacy","#757575","low","2","Jazzy James","3.1.9","0","a","NA","space","l","l","a","NA","571","NA","131817","21408","37772","571","NA","2","legacy","1024","2","48000","-16","experiment","2","even","absent","192369","192369","NA","300013","1298","192353","314308","314826","1316","133150","154579","314826","315399","NA","314287","Fraction component detection task","81","66013","86","yes","1280"
"94.2528735632","94.2528735632","766","766","#808080","no","legacy","legacy","legacy","0","uniform","1","undefined","undefined","undefined","1","a","0","0","0","86","0","0","86","86","0","0","0","86","86","0","86","Tue Apr 24 10:05:50 2018","#757575","low","4","The main experiment item","yes","","experiment.osexp","/Users/tom/github/sft-fraction/procedure","no","mono","no","24","no","white","no","yes","800","legacy","86","86","0","/Users/tom/github/sft-fraction/results/subject-2a.csv","legacy","#757575","low","4","Jazzy James","3.1.9","0","a","NA","space","l","l","a","NA","629","NA","131817","21408","37772","629","NA","2","legacy","1024","2","48000","-16","experiment","2","even","absent","192369","192369","NA","300013","1298","192353","315480","316000","1316","133150","154579","316000","316632","NA","315464","Fraction component detection task","82","66642","87","yes","1280"
"94.3181818182","94.3181818182","763.477272727","763.477272727","#808080","no","legacy","legacy","legacy","0","uniform","1","undefined","undefined","undefined","1","l","0","0","0","87","0","0","87","87","0","0","0","87","87","0","87","Tue Apr 24 10:05:50 2018","#000000","high","6","The main experiment item","yes","","experiment.osexp","/Users/tom/github/sft-fraction/procedure","no","mono","no","24","no","white","no","yes","800","legacy","87","87","0","/Users/tom/github/sft-fraction/results/subject-2a.csv","legacy","#757575","low","4","Jazzy James","3.1.9","0","l","NA","space","l","l","l","NA","544","NA","131817","21408","37772","544","NA","2","legacy","1024","2","48000","-16","experiment","2","even","present","192369","192369","NA","300013","1298","192353","316721","317237","1316","133150","154579","317237","317784","NA","316702","Fraction component detection task","83","67186","88","yes","1280"
"94.3820224719","94.3820224719","761.370786517","761.370786517","#808080","no","legacy","legacy","legacy","0","uniform","1","undefined","undefined","undefined","1","a","0","0","0","88","0","0","88","88","0","0","0","88","88","0","88","Tue Apr 24 10:05:50 2018","#000000","high","4","The main experiment item","yes","","experiment.osexp","/Users/tom/github/sft-fraction/procedure","no","mono","no","24","no","white","no","yes","800","legacy","88","88","0","/Users/tom/github/sft-fraction/results/subject-2a.csv","legacy","#757575","low","4","Jazzy James","3.1.9","0","a","NA","space","l","l","a","NA","576","NA","131817","21408","37772","576","NA","2","legacy","1024","2","48000","-16","experiment","2","even","absent","192369","192369","NA","300013","1298","192353","317865","318382","1316","133150","154579","318382","318961","NA","317850","Fraction component detection task","84","67762","89","yes","1280"
"94.4444444444","94.4444444444","759.233333333","759.233333333","#808080","no","legacy","legacy","legacy","0","uniform","1","undefined","undefined","undefined","1","l","0","0","0","89","0","0","89","89","0","0","0","89","89","0","89","Tue Apr 24 10:05:50 2018","#000000","high","6","The main experiment item","yes","","experiment.osexp","/Users/tom/github/sft-fraction/procedure","no","mono","no","24","no","white","no","yes","800","legacy","89","89","0","/Users/tom/github/sft-fraction/results/subject-2a.csv","legacy","#757575","low","8","Jazzy James","3.1.9","0","l","NA","space","l","l","l","NA","569","NA","131817","21408","37772","569","NA","2","legacy","1024","2","48000","-16","experiment","2","even","present","192369","192369","NA","300013","1298","192353","319052","319572","1316","133150","154579","319572","320144","NA","319030","Fraction component detection task","85","68331","90","yes","1280"
"93.4065934066","93.4065934066","757.945054945","757.945054945","#808080","no","legacy","legacy","legacy","0","uniform","0","undefined","undefined","undefined","0","l","0","0","0","90","0","0","90","90","0","0","0","90","90","0","90","Tue Apr 24 10:05:50 2018","#000000","high","7","The main experiment item","yes","","experiment.osexp","/Users/tom/github/sft-fraction/procedure","no","mono","no","24","no","white","no","yes","800","legacy","90","90","0","/Users/tom/github/sft-fraction/results/subject-2a.csv","legacy","#000000","high","4","Jazzy James","3.1.9","0","a","NA","space","l","l","a","NA","642","NA","131817","21408","37772","642","NA","2","legacy","1024","2","48000","-16","experiment","2","even","present","192369","192369","NA","300013","1298","192353","320228","320747","1316","133150","154579","320747","321392","NA","320212","Fraction component detection task","85","68973","91","yes","1280"
"93.4782608696","93.4782608696","759.923913043","759.923913043","#808080","no","legacy","legacy","legacy","0","uniform","1","undefined","undefined","undefined","1","a","0","0","0","91","0","0","91","91","0","0","0","91","91","0","91","Tue Apr 24 10:05:50 2018","#000000","high","2","The main experiment item","yes","","experiment.osexp","/Users/tom/github/sft-fraction/procedure","no","mono","no","24","no","white","no","yes","800","legacy","91","91","0","/Users/tom/github/sft-fraction/results/subject-2a.csv","legacy","#757575","low","4","Jazzy James","3.1.9","0","a","NA","space","l","l","a","NA","940","NA","131817","21408","37772","940","NA","2","legacy","1024","2","48000","-16","experiment","2","even","absent","192369","192369","NA","321410","1298","192353","322492","323010","1316","133150","154579","323010","323953","NA","322477","Fraction component detection task","86","69913","92","yes","1280"
"93.5483870968","93.5483870968","756.784946237","756.784946237","#808080","no","legacy","legacy","legacy","0","uniform","1","undefined","undefined","undefined","1","l","0","0","0","92","0","0","92","92","0","0","0","92","92","0","92","Tue Apr 24 10:05:50 2018","#757575","low","4","The main experiment item","yes","","experiment.osexp","/Users/tom/github/sft-fraction/procedure","no","mono","no","24","no","white","no","yes","800","legacy","92","92","0","/Users/tom/github/sft-fraction/results/subject-2a.csv","legacy","#000000","high","6","Jazzy James","3.1.9","0","l","NA","space","l","l","l","NA","468","NA","131817","21408","37772","468","NA","2","legacy","1024","2","48000","-16","experiment","2","even","present","192369","192369","NA","321410","1298","192353","324035","324553","1316","133150","154579","324553","325024","NA","324019","Fraction component detection task","87","70381","93","yes","1280"
"93.6170212766","93.6170212766","755.180851064","755.180851064","#808080","no","legacy","legacy","legacy","0","uniform","1","undefined","undefined","undefined","1","l","0","0","0","93","0","0","93","93","0","0","0","93","93","0","93","Tue Apr 24 10:05:50 2018","#000000","high","7","The main experiment item","yes","","experiment.osexp","/Users/tom/github/sft-fraction/procedure","no","mono","no","24","no","white","no","yes","800","legacy","93","93","0","/Users/tom/github/sft-fraction/results/subject-2a.csv","legacy","#000000","high","2","Jazzy James","3.1.9","0","l","NA","space","l","l","l","NA","606","NA","131817","21408","37772","606","NA","2","legacy","1024","2","48000","-16","experiment","2","even","present","192369","192369","NA","321410","1298","192353","325114","325630","1316","133150","154579","325631","326240","NA","325094","Fraction component detection task","88","70987","94","yes","1280"
"93.6842105263","93.6842105263","752.810526316","752.810526316","#808080","no","legacy","legacy","legacy","0","uniform","1","undefined","undefined","undefined","1","l","0","0","0","94","0","0","94","94","0","0","0","94","94","0","94","Tue Apr 24 10:05:50 2018","#000000","high","3","The main experiment item","yes","","experiment.osexp","/Users/tom/github/sft-fraction/procedure","no","mono","no","24","no","white","no","yes","800","legacy","94","94","0","/Users/tom/github/sft-fraction/results/subject-2a.csv","legacy","#000000","high","7","Jazzy James","3.1.9","0","l","NA","space","l","l","l","NA","530","NA","131817","21408","37772","530","NA","2","legacy","1024","2","48000","-16","experiment","2","even","present","192369","192369","NA","321410","1298","192353","326327","326843","1316","133150","154579","326843","327376","NA","326307","Fraction component detection task","89","71517","95","yes","1280"
"93.75","93.75","751.604166667","751.604166667","#808080","no","legacy","legacy","legacy","0","uniform","1","undefined","undefined","undefined","1","l","0","0","0","95","0","0","95","95","0","0","0","95","95","0","95","Tue Apr 24 10:05:50 2018","#757575","low","3","The main experiment item","yes","","experiment.osexp","/Users/tom/github/sft-fraction/procedure","no","mono","no","24","no","white","no","yes","800","legacy","95","95","0","/Users/tom/github/sft-fraction/results/subject-2a.csv","legacy","#757575","low","6","Jazzy James","3.1.9","0","l","NA","space","l","l","l","NA","637","NA","131817","21408","37772","637","NA","2","legacy","1024","2","48000","-16","experiment","2","even","present","192369","192369","NA","321410","1298","192353","327459","327976","1316","133150","154579","327976","328616","NA","327443","Fraction component detection task","90","72154","96","yes","1280"
"93.8144329897","93.8144329897","748.907216495","748.907216495","#808080","no","legacy","legacy","legacy","0","uniform","1","undefined","undefined","undefined","1","a","0","0","0","96","0","0","96","96","0","0","0","96","96","0","96","Tue Apr 24 10:05:50 2018","#757575","low","4","The main experiment item","yes","","experiment.osexp","/Users/tom/github/sft-fraction/procedure","no","mono","no","24","no","white","no","yes","800","legacy","96","96","0","/Users/tom/github/sft-fraction/results/subject-2a.csv","legacy","#000000","high","4","Jazzy James","3.1.9","0","a","NA","space","l","l","a","NA","490","NA","131817","21408","37772","490","NA","2","legacy","1024","2","48000","-16","experiment","2","even","absent","192369","192369","NA","321410","1298","192353","328702","329218","1316","133150","154579","329219","329712","NA","328686","Fraction component detection task","91","72644","97","yes","1280"
"93.8775510204","93.8775510204","748","748","#808080","no","legacy","legacy","legacy","0","uniform","1","undefined","undefined","undefined","1","a","0","0","0","97","0","0","97","97","0","0","0","97","97","0","97","Tue Apr 24 10:05:50 2018","#757575","low","4","The main experiment item","yes","","experiment.osexp","/Users/tom/github/sft-fraction/procedure","no","mono","no","24","no","white","no","yes","800","legacy","97","97","0","/Users/tom/github/sft-fraction/results/subject-2a.csv","legacy","#757575","low","2","Jazzy James","3.1.9","0","a","NA","space","l","l","a","NA","660","NA","131817","21408","37772","660","NA","2","legacy","1024","2","48000","-16","experiment","2","even","absent","192369","192369","NA","321410","1298","192353","329798","330314","1316","133150","154579","330314","330977","NA","329782","Fraction component detection task","92","73304","98","yes","1280"
"93.9393939394","93.9393939394","746.272727273","746.272727273","#808080","no","legacy","legacy","legacy","0","uniform","1","undefined","undefined","undefined","1","a","0","0","0","98","0","0","98","98","0","0","0","98","98","0","98","Tue Apr 24 10:05:50 2018","#000000","high","3","The main experiment item","yes","","experiment.osexp","/Users/tom/github/sft-fraction/procedure","no","mono","no","24","no","white","no","yes","800","legacy","98","98","0","/Users/tom/github/sft-fraction/results/subject-2a.csv","legacy","#757575","low","2","Jazzy James","3.1.9","0","a","NA","space","l","l","a","NA","577","NA","131817","21408","37772","577","NA","2","legacy","1024","2","48000","-16","experiment","2","even","absent","192369","192369","NA","321410","1298","192353","331054","331572","1316","133150","154579","331572","332153","NA","331039","Fraction component detection task","93","73881","99","yes","1280"
"94","94","744.34","744.34","#808080","no","legacy","legacy","legacy","0","uniform","1","undefined","undefined","undefined","1","a","0","0","0","99","0","0","99","99","0","0","0","99","99","0","99","Tue Apr 24 10:05:50 2018","#757575","low","2","The main experiment item","yes","","experiment.osexp","/Users/tom/github/sft-fraction/procedure","no","mono","no","24","no","white","no","yes","800","legacy","99","99","0","/Users/tom/github/sft-fraction/results/subject-2a.csv","legacy","#000000","high","4","Jazzy James","3.1.9","0","a","NA","space","l","l","a","NA","553","NA","131817","21408","37772","553","NA","2","legacy","1024","2","48000","-16","experiment","2","even","absent","192369","192369","NA","321410","1298","192353","332236","332755","1316","133150","154579","332756","333312","NA","332219","Fraction component detection task","94","74434","100","yes","1280"
"94.0594059406","94.0594059406","744.425742574","744.425742574","#808080","no","legacy","legacy","legacy","0","uniform","1","undefined","undefined","undefined","1","l","0","0","0","100","0","0","100","100","0","0","0","100","100","0","100","Tue Apr 24 10:05:50 2018","#757575","low","8","The main experiment item","yes","","experiment.osexp","/Users/tom/github/sft-fraction/procedure","no","mono","no","24","no","white","no","yes","800","legacy","100","100","0","/Users/tom/github/sft-fraction/results/subject-2a.csv","legacy","#757575","low","6","Jazzy James","3.1.9","0","l","NA","space","l","l","l","NA","753","NA","131817","21408","37772","753","NA","2","legacy","1024","2","48000","-16","experiment","2","even","present","192369","192369","NA","321410","1298","192353","333400","333917","1316","133150","154579","333917","334673","NA","333382","Fraction component detection task","95","75187","101","yes","1280"
"94.1176470588","94.1176470588","742.931372549","742.931372549","#808080","no","legacy","legacy","legacy","0","uniform","1","undefined","undefined","undefined","1","l","0","0","0","101","0","0","101","101","0","0","0","101","101","0","101","Tue Apr 24 10:05:50 2018","#000000","high","2","The main experiment item","yes","","experiment.osexp","/Users/tom/github/sft-fraction/procedure","no","mono","no","24","no","white","no","yes","800","legacy","101","101","0","/Users/tom/github/sft-fraction/results/subject-2a.csv","legacy","#000000","high","8","Jazzy James","3.1.9","0","l","NA","space","l","l","l","NA","592","NA","131817","21408","37772","592","NA","2","legacy","1024","2","48000","-16","experiment","2","even","present","192369","192369","NA","321410","1298","192353","334753","335270","1316","133150","154579","335270","335865","NA","334738","Fraction component detection task","96","75779","102","yes","1280"
"94.1747572816","94.1747572816","740.611650485","740.611650485","#808080","no","legacy","legacy","legacy","0","uniform","1","undefined","undefined","undefined","1","a","0","0","0","102","0","0","102","102","0","0","0","102","102","0","102","Tue Apr 24 10:05:50 2018","#757575","low","2","The main experiment item","yes","","experiment.osexp","/Users/tom/github/sft-fraction/procedure","no","mono","no","24","no","white","no","yes","800","legacy","102","102","0","/Users/tom/github/sft-fraction/results/subject-2a.csv","legacy","#000000","high","2","Jazzy James","3.1.9","0","a","NA","space","l","l","a","NA","504","NA","131817","21408","37772","504","NA","2","legacy","1024","2","48000","-16","experiment","2","even","absent","192369","192369","NA","321410","1298","192353","335946","336463","1316","133150","154579","336463","336970","NA","335928","Fraction component detection task","97","76283","103","yes","1280"
"94.2307692308","94.2307692308","738.25","738.25","#808080","no","legacy","legacy","legacy","0","uniform","1","undefined","undefined","undefined","1","l","0","0","0","103","0","0","103","103","0","0","0","103","103","0","103","Tue Apr 24 10:05:50 2018","#000000","high","7","The main experiment item","yes","","experiment.osexp","/Users/tom/github/sft-fraction/procedure","no","mono","no","24","no","white","no","yes","800","legacy","103","103","0","/Users/tom/github/sft-fraction/results/subject-2a.csv","legacy","#757575","low","7","Jazzy James","3.1.9","0","l","NA","space","l","l","l","NA","495","NA","131817","21408","37772","495","NA","2","legacy","1024","2","48000","-16","experiment","2","even","present","192369","192369","NA","321410","1298","192353","337050","337567","1316","133150","154579","337567","338065","NA","337034","Fraction component detection task","98","76778","104","yes","1280"
"94.2857142857","94.2857142857","736.704761905","736.704761905","#808080","no","legacy","legacy","legacy","0","uniform","1","undefined","undefined","undefined","1","a","0","0","0","104","0","0","104","104","0","0","0","104","104","0","104","Tue Apr 24 10:05:50 2018","#757575","low","2","The main experiment item","yes","","experiment.osexp","/Users/tom/github/sft-fraction/procedure","no","mono","no","24","no","white","no","yes","800","legacy","104","104","0","/Users/tom/github/sft-fraction/results/subject-2a.csv","legacy","#000000","high","3","Jazzy James","3.1.9","0","a","NA","space","l","l","a","NA","576","NA","131817","21408","37772","576","NA","2","legacy","1024","2","48000","-16","experiment","2","even","absent","192369","192369","NA","321410","1298","192353","338146","338662","1316","133150","154579","338662","339241","NA","338130","Fraction component detection task","99","77354","105","yes","1280"
"94.3396226415","94.3396226415","735.764150943","735.764150943","#808080","no","legacy","legacy","legacy","0","uniform","1","undefined","undefined","undefined","1","l","0","0","0","105","0","0","105","105","0","0","0","105","105","0","105","Tue Apr 24 10:05:50 2018","#757575","low","8","The main experiment item","yes","","experiment.osexp","/Users/tom/github/sft-fraction/procedure","no","mono","no","24","no","white","no","yes","800","legacy","105","105","0","/Users/tom/github/sft-fraction/results/subject-2a.csv","legacy","#757575","low","4","Jazzy James","3.1.9","0","l","NA","space","l","l","l","NA","637","NA","131817","21408","37772","637","NA","2","legacy","1024","2","48000","-16","experiment","2","even","present","192369","192369","NA","321410","1298","192353","339331","339849","1316","133150","154579","339849","340489","NA","339311","Fraction component detection task","100","77991","106","yes","1280"
"94.3925233645","94.3925233645","733.336448598","733.336448598","#808080","no","legacy","legacy","legacy","0","uniform","1","undefined","undefined","undefined","1","l","0","0","0","106","0","0","106","106","0","0","0","106","106","0","106","Tue Apr 24 10:05:50 2018","#757575","low","8","The main experiment item","yes","","experiment.osexp","/Users/tom/github/sft-fraction/procedure","no","mono","no","24","no","white","no","yes","800","legacy","106","106","0","/Users/tom/github/sft-fraction/results/subject-2a.csv","legacy","#000000","high","6","Jazzy James","3.1.9","0","l","NA","space","l","l","l","NA","476","NA","131817","21408","37772","476","NA","2","legacy","1024","2","48000","-16","experiment","2","even","present","192369","192369","NA","321410","1298","192353","340573","341090","1316","133150","154579","341090","341569","NA","340557","Fraction component detection task","101","78467","107","yes","1280"
"94.4444444444","94.4444444444","731.055555556","731.055555556","#808080","no","legacy","legacy","legacy","0","uniform","1","undefined","undefined","undefined","1","a","0","0","0","107","0","0","107","107","0","0","0","107","107","0","107","Tue Apr 24 10:05:50 2018","#757575","low","4","The main experiment item","yes","","experiment.osexp","/Users/tom/github/sft-fraction/procedure","no","mono","no","24","no","white","no","yes","800","legacy","107","107","0","/Users/tom/github/sft-fraction/results/subject-2a.csv","legacy","#000000","high","2","Jazzy James","3.1.9","0","a","NA","space","l","l","a","NA","487","NA","131817","21408","37772","487","NA","2","legacy","1024","2","48000","-16","experiment","2","even","absent","192369","192369","NA","321410","1298","192353","341658","342175","1316","133150","154579","342175","342665","NA","341639","Fraction component detection task","102","78954","108","yes","1280"
