"acc","accuracy","average_response_time","avg_rt","background","bidi","canvas_backend","clock_backend","color_backend","compensation","coordinates","correct","correct_instructions1","correct_instructions2","correct_instructions3","correct_keyboard_response","correct_response","count_block_loop","count_block_sequence","count_end_of_experiment","count_error","count_experiment","count_experimental_loop","count_fixation_dot","count_fraction","count_instructions1","count_instructions2","count_instructions3","count_keyboard_response","count_logger","count_rest","count_trial_sequence","datetime","denomColor","denomSalience","denominator","description","disable_garbage_collection","empty_column","experiment_file","experiment_path","font_bold","font_family","font_italic","font_size","font_underline","foreground","form_clicks","fullscreen","height","keyboard_backend","live_row","live_row_block_loop","live_row_experimental_loop","logfile","mouse_backend","numColor","numSalience","numerator","opensesame_codename","opensesame_version","repeat_cycle","response","response_end_of_experiment","response_instructions1","response_instructions2","response_instructions3","response_keyboard_response","response_rest","response_time","response_time_end_of_experiment","response_time_instructions1","response_time_instructions2","response_time_instructions3","response_time_keyboard_response","response_time_rest","round_decimals","sampler_backend","sound_buf_size","sound_channels","sound_freq","sound_sample_size","start","subject_nr","subject_parity","target","time_block_loop","time_block_sequence","time_end_of_experiment","time_error","time_experiment","time_experimental_loop","time_fixation_dot","time_fraction","time_instructions1","time_instructions2","time_instructions3","time_keyboard_response","time_logger","time_rest","time_trial_sequence","title","total_correct","total_response_time","total_responses","uniform_coordinates","width"
"100","100","779","779","#808080","no","legacy","legacy","legacy","0","uniform","1","undefined","undefined","undefined","1","a","0","0","0","0","0","0","0","0","0","0","0","0","0","0","0","Tue May  1 10:34:00 2018","#757575","low","4","The main experiment item","yes","","exp1.osexp","/Users/tom/github/sft-fraction/exp1","no","mono","no","24","no","white","no","yes","800","legacy","0","0","0","/Users/tom/github/sft-fraction/exp1/data/subject-4b.csv","legacy","#000000","high","4","Jazzy James","3.1.9","0","a","NA","space","space","l","a","NA","779","NA","28559","21485","29713","779","NA","2","legacy","1024","2","48000","-16","experiment","4","even","absent","80869","80868","NA","NA","1021","80852","80924","81440","1052","29630","51132","81441","82222","NA","80907","Fraction component detection task","1","779","1","yes","1280"
"100","100","759.5","759.5","#808080","no","legacy","legacy","legacy","0","uniform","1","undefined","undefined","undefined","1","l","0","0","0","1","0","0","1","1","0","0","0","1","1","0","1","Tue May  1 10:34:00 2018","#757575","low","3","The main experiment item","yes","","exp1.osexp","/Users/tom/github/sft-fraction/exp1","no","mono","no","24","no","white","no","yes","800","legacy","1","1","0","/Users/tom/github/sft-fraction/exp1/data/subject-4b.csv","legacy","#757575","low","7","Jazzy James","3.1.9","0","l","NA","space","space","l","l","NA","740","NA","28559","21485","29713","740","NA","2","legacy","1024","2","48000","-16","experiment","4","even","present","80869","80868","NA","NA","1021","80852","82315","82833","1052","29630","51132","82833","83575","NA","82298","Fraction component detection task","2","1519","2","yes","1280"
"100","100","689.333333333","689.333333333","#808080","no","legacy","legacy","legacy","0","uniform","1","undefined","undefined","undefined","1","a","0","0","0","2","0","0","2","2","0","0","0","2","2","0","2","Tue May  1 10:34:00 2018","#000000","high","2","The main experiment item","yes","","exp1.osexp","/Users/tom/github/sft-fraction/exp1","no","mono","no","24","no","white","no","yes","800","legacy","2","2","0","/Users/tom/github/sft-fraction/exp1/data/subject-4b.csv","legacy","#000000","high","2","Jazzy James","3.1.9","0","a","NA","space","space","l","a","NA","549","NA","28559","21485","29713","549","NA","2","legacy","1024","2","48000","-16","experiment","4","even","absent","80869","80868","NA","NA","1021","80852","83655","84175","1052","29630","51132","84176","84727","NA","83639","Fraction component detection task","3","2068","3","yes","1280"
"100","100","792","792","#808080","no","legacy","legacy","legacy","0","uniform","1","undefined","undefined","undefined","1","l","0","0","0","3","0","0","3","3","0","0","0","3","3","0","3","Tue May  1 10:34:00 2018","#000000","high","8","The main experiment item","yes","","exp1.osexp","/Users/tom/github/sft-fraction/exp1","no","mono","no","24","no","white","no","yes","800","legacy","3","3","0","/Users/tom/github/sft-fraction/exp1/data/subject-4b.csv","legacy","#757575","low","3","Jazzy James","3.1.9","0","l","NA","space","space","l","l","NA","1100","NA","28559","21485","29713","1100","NA","2","legacy","1024","2","48000","-16","experiment","4","even","present","80869","80868","NA","NA","1021","80852","84815","85337","1052","29630","51132","85337","86439","NA","84794","Fraction component detection task","4","3168","4","yes","1280"
"100","100","769.4","769.4","#808080","no","legacy","legacy","legacy","0","uniform","1","undefined","undefined","undefined","1","l","0","0","0","4","0","0","4","4","0","0","0","4","4","0","4","Tue May  1 10:34:00 2018","#000000","high","8","The main experiment item","yes","","exp1.osexp","/Users/tom/github/sft-fraction/exp1","no","mono","no","24","no","white","no","yes","800","legacy","4","4","0","/Users/tom/github/sft-fraction/exp1/data/subject-4b.csv","legacy","#000000","high","7","Jazzy James","3.1.9","0","l","NA","space","space","l","l","NA","679","NA","28559","21485","29713","679","NA","2","legacy","1024","2","48000","-16","experiment","4","even","present","80869","80868","NA","NA","1021","80852","86522","87039","1052","29630","51132","87039","87719","NA","86504","Fraction component detection task","5","3847","5","yes","1280"
"100","100","751.833333333","751.833333333","#808080","no","legacy","legacy","legacy","0","uniform","1","undefined","undefined","undefined","1","a","0","0","0","5","0","0","5","5","0","0","0","5","5","0","5","Tue May  1 10:34:00 2018","#757575","low","3","The main experiment item","yes","","exp1.osexp","/Users/tom/github/sft-fraction/exp1","no","mono","no","24","no","white","no","yes","800","legacy","5","5","0","/Users/tom/github/sft-fraction/exp1/data/subject-4b.csv","legacy","#000000","high","2","Jazzy James","3.1.9","0","a","NA","space","space","l","a","NA","664","NA","28559","21485","29713","664","NA","2","legacy","1024","2","48000","-16","experiment","4","even","absent","80869","80868","NA","NA","1021","80852","87808","88325","1052","29630","51132","88326","88991","NA","87786","Fraction component detection task","6","4511","6","yes","1280"
"100","100","739.428571429","739.428571429","#808080","no","legacy","legacy","legacy","0","uniform","1","undefined","undefined","undefined","1","a","0","0","0","6","0","0","6","6","0","0","0","6","6","0","6","Tue May  1 10:34:00 2018","#000000","high","3","The main experiment item","yes","","exp1.osexp","/Users/tom/github/sft-fraction/exp1","no","mono","no","24","no","white","no","yes","800","legacy","6","6","0","/Users/tom/github/sft-fraction/exp1/data/subject-4b.csv","legacy","#000000","high","2","Jazzy James","3.1.9","0","a","NA","space","space","l","a","NA","665","NA","28559","21485","29713","665","NA","2","legacy","1024","2","48000","-16","experiment","4","even","absent","80869","80868","NA","NA","1021","80852","89070","89588","1052","29630","51132","89588","90254","NA","89054","Fraction component detection task","7","5176","7","yes","1280"
"100","100","790.125","790.125","#808080","no","legacy","legacy","legacy","0","uniform","1","undefined","undefined","undefined","1","a","0","0","0","7","0","0","7","7","0","0","0","7","7","0","7","Tue May  1 10:34:00 2018","#757575","low","4","The main experiment item","yes","","exp1.osexp","/Users/tom/github/sft-fraction/exp1","no","mono","no","24","no","white","no","yes","800","legacy","7","7","0","/Users/tom/github/sft-fraction/exp1/data/subject-4b.csv","legacy","#757575","low","4","Jazzy James","3.1.9","0","a","NA","space","space","l","a","NA","1145","NA","28559","21485","29713","1145","NA","2","legacy","1024","2","48000","-16","experiment","4","even","absent","80869","80868","NA","NA","1021","80852","90343","90860","1052","29630","51132","90860","92007","NA","90320","Fraction component detection task","8","6321","8","yes","1280"
"100","100","781.111111111","781.111111111","#808080","no","legacy","legacy","legacy","0","uniform","1","undefined","undefined","undefined","1","l","0","0","0","8","0","0","8","8","0","0","0","8","8","0","8","Tue May  1 10:34:00 2018","#757575","low","7","The main experiment item","yes","","exp1.osexp","/Users/tom/github/sft-fraction/exp1","no","mono","no","24","no","white","no","yes","800","legacy","8","8","0","/Users/tom/github/sft-fraction/exp1/data/subject-4b.csv","legacy","#000000","high","4","Jazzy James","3.1.9","0","l","NA","space","space","l","l","NA","709","NA","28559","21485","29713","709","NA","2","legacy","1024","2","48000","-16","experiment","4","even","present","80869","80868","NA","NA","1021","80852","92090","92607","1052","29630","51132","92608","93319","NA","92074","Fraction component detection task","9","7030","9","yes","1280"
"100","100","755.6","755.6","#808080","no","legacy","legacy","legacy","0","uniform","1","undefined","undefined","undefined","1","l","0","0","0","9","0","0","9","9","0","0","0","9","9","0","9","Tue May  1 10:34:00 2018","#000000","high","7","The main experiment item","yes","","exp1.osexp","/Users/tom/github/sft-fraction/exp1","no","mono","no","24","no","white","no","yes","800","legacy","9","9","0","/Users/tom/github/sft-fraction/exp1/data/subject-4b.csv","legacy","#757575","low","7","Jazzy James","3.1.9","0","l","NA","space","space","l","l","NA","526","NA","28559","21485","29713","526","NA","2","legacy","1024","2","48000","-16","experiment","4","even","present","80869","80868","NA","NA","1021","80852","93407","93927","1052","29630","51132","93928","94455","NA","93390","Fraction component detection task","10","7556","10","yes","1280"
"100","100","745.363636364","745.363636364","#808080","no","legacy","legacy","legacy","0","uniform","1","undefined","undefined","undefined","1","a","0","0","0","10","0","0","10","10","0","0","0","10","10","0","10","Tue May  1 10:34:00 2018","#000000","high","2","The main experiment item","yes","","exp1.osexp","/Users/tom/github/sft-fraction/exp1","no","mono","no","24","no","white","no","yes","800","legacy","10","10","0","/Users/tom/github/sft-fraction/exp1/data/subject-4b.csv","legacy","#000000","high","4","Jazzy James","3.1.9","0","a","NA","space","space","l","a","NA","643","NA","28559","21485","29713","643","NA","2","legacy","1024","2","48000","-16","experiment","4","even","absent","80869","80868","NA","NA","1021","80852","94550","95067","1052","29630","51132","95067","95712","NA","94528","Fraction component detection task","11","8199","11","yes","1280"
"100","100","739.166666667","739.166666667","#808080","no","legacy","legacy","legacy","0","uniform","1","undefined","undefined","undefined","1","l","0","0","0","11","0","0","11","11","0","0","0","11","11","0","11","Tue May  1 10:34:00 2018","#000000","high","8","The main experiment item","yes","","exp1.osexp","/Users/tom/github/sft-fraction/exp1","no","mono","no","24","no","white","no","yes","800","legacy","11","11","0","/Users/tom/github/sft-fraction/exp1/data/subject-4b.csv","legacy","#757575","low","4","Jazzy James","3.1.9","0","l","NA","space","space","l","l","NA","671","NA","28559","21485","29713","671","NA","2","legacy","1024","2","48000","-16","experiment","4","even","present","80869","80868","NA","NA","1021","80852","95795","96311","1052","29630","51132","96311","96984","NA","95779","Fraction component detection task","12","8870","12","yes","1280"
"100","100","725","725","#808080","no","legacy","legacy","legacy","0","uniform","1","undefined","undefined","undefined","1","l","0","0","0","12","0","0","12","12","0","0","0","12","12","0","12","Tue May  1 10:34:00 2018","#757575","low","4","The main experiment item","yes","","exp1.osexp","/Users/tom/github/sft-fraction/exp1","no","mono","no","24","no","white","no","yes","800","legacy","12","12","0","/Users/tom/github/sft-fraction/exp1/data/subject-4b.csv","legacy","#000000","high","6","Jazzy James","3.1.9","0","l","NA","space","space","l","l","NA","555","NA","28559","21485","29713","555","NA","2","legacy","1024","2","48000","-16","experiment","4","even","present","80869","80868","NA","NA","1021","80852","97068","97586","1052","29630","51132","97586","98143","NA","97050","Fraction component detection task","13","9425","13","yes","1280"
"100","100","720","720","#808080","no","legacy","legacy","legacy","0","uniform","1","undefined","undefined","undefined","1","a","0","0","0","13","0","0","13","13","0","0","0","13","13","0","13","Tue May  1 10:34:00 2018","#757575","low","3","The main experiment item","yes","","exp1.osexp","/Users/tom/github/sft-fraction/exp1","no","mono","no","24","no","white","no","yes","800","legacy","13","13","0","/Users/tom/github/sft-fraction/exp1/data/subject-4b.csv","legacy","#000000","high","2","Jazzy James","3.1.9","0","a","NA","space","space","l","a","NA","655","NA","28559","21485","29713","655","NA","2","legacy","1024","2","48000","-16","experiment","4","even","absent","80869","80868","NA","NA","1021","80852","98226","98743","1052","29630","51132","98743","99400","NA","98210","Fraction component detection task","14","10080","14","yes","1280"
"100","100","709.733333333","709.733333333","#808080","no","legacy","legacy","legacy","0","uniform","1","undefined","undefined","undefined","1","a","0","0","0","14","0","0","14","14","0","0","0","14","14","0","14","Tue May  1 10:34:00 2018","#757575","low","3","The main experiment item","yes","","exp1.osexp","/Users/tom/github/sft-fraction/exp1","no","mono","no","24","no","white","no","yes","800","legacy","14","14","0","/Users/tom/github/sft-fraction/exp1/data/subject-4b.csv","legacy","#757575","low","4","Jazzy James","3.1.9","0","a","NA","space","space","l","a","NA","566","NA","28559","21485","29713","566","NA","2","legacy","1024","2","48000","-16","experiment","4","even","absent","80869","80868","NA","NA","1021","80852","99492","100008","1052","29630","51132","100008","100576","NA","99470","Fraction component detection task","15","10646","15","yes","1280"
"100","100","702.8125","702.8125","#808080","no","legacy","legacy","legacy","0","uniform","1","undefined","undefined","undefined","1","l","0","0","0","15","0","0","15","15","0","0","0","15","15","0","15","Tue May  1 10:34:00 2018","#757575","low","6","The main experiment item","yes","","exp1.osexp","/Users/tom/github/sft-fraction/exp1","no","mono","no","24","no","white","no","yes","800","legacy","15","15","0","/Users/tom/github/sft-fraction/exp1/data/subject-4b.csv","legacy","#757575","low","7","Jazzy James","3.1.9","0","l","NA","space","space","l","l","NA","599","NA","28559","21485","29713","599","NA","2","legacy","1024","2","48000","-16","experiment","4","even","present","80869","80868","NA","NA","1021","80852","100663","101183","1052","29630","51132","101183","101784","NA","100646","Fraction component detection task","16","11245","16","yes","1280"
"100","100","692.411764706","692.411764706","#808080","no","legacy","legacy","legacy","0","uniform","1","undefined","undefined","undefined","1","a","0","0","0","16","0","0","16","16","0","0","0","16","16","0","16","Tue May  1 10:34:00 2018","#000000","high","4","The main experiment item","yes","","exp1.osexp","/Users/tom/github/sft-fraction/exp1","no","mono","no","24","no","white","no","yes","800","legacy","16","16","0","/Users/tom/github/sft-fraction/exp1/data/subject-4b.csv","legacy","#000000","high","3","Jazzy James","3.1.9","0","a","NA","space","space","l","a","NA","526","NA","28559","21485","29713","526","NA","2","legacy","1024","2","48000","-16","experiment","4","even","absent","80869","80868","NA","NA","1021","80852","101867","102384","1052","29630","51132","102384","102912","NA","101851","Fraction component detection task","17","11771","17","yes","1280"
"100","100","682.722222222","682.722222222","#808080","no","legacy","legacy","legacy","0","uniform","1","undefined","undefined","undefined","1","l","0","0","0","17","0","0","17","17","0","0","0","17","17","0","17","Tue May  1 10:34:00 2018","#757575","low","7","The main experiment item","yes","","exp1.osexp","/Users/tom/github/sft-fraction/exp1","no","mono","no","24","no","white","no","yes","800","legacy","17","17","0","/Users/tom/github/sft-fraction/exp1/data/subject-4b.csv","legacy","#000000","high","6","Jazzy James","3.1.9","0","l","NA","space","space","l","l","NA","518","NA","28559","21485","29713","518","NA","2","legacy","1024","2","48000","-16","experiment","4","even","present","80869","80868","NA","NA","1021","80852","103001","103518","1052","29630","51132","103519","104039","NA","102981","Fraction component detection task","18","12289","18","yes","1280"
"100","100","675.947368421","675.947368421","#808080","no","legacy","legacy","legacy","0","uniform","1","undefined","undefined","undefined","1","a","0","0","0","18","0","0","18","18","0","0","0","18","18","0","18","Tue May  1 10:34:00 2018","#757575","low","3","The main experiment item","yes","","exp1.osexp","/Users/tom/github/sft-fraction/exp1","no","mono","no","24","no","white","no","yes","800","legacy","18","18","0","/Users/tom/github/sft-fraction/exp1/data/subject-4b.csv","legacy","#757575","low","4","Jazzy James","3.1.9","0","a","NA","space","space","l","a","NA","554","NA","28559","21485","29713","554","NA","2","legacy","1024","2","48000","-16","experiment","4","even","absent","80869","80868","NA","NA","1021","80852","104125","104643","1052","29630","51132","104643","105199","NA","104104","Fraction component detection task","19","12843","19","yes","1280"
"100","100","674.1","674.1","#808080","no","legacy","legacy","legacy","0","uniform","1","undefined","undefined","undefined","1","l","0","0","0","19","0","0","19","19","0","0","0","19","19","0","19","Tue May  1 10:34:00 2018","#000000","high","2","The main experiment item","yes","","exp1.osexp","/Users/tom/github/sft-fraction/exp1","no","mono","no","24","no","white","no","yes","800","legacy","19","19","0","/Users/tom/github/sft-fraction/exp1/data/subject-4b.csv","legacy","#757575","low","7","Jazzy James","3.1.9","0","l","NA","space","space","l","l","NA","639","NA","28559","21485","29713","639","NA","2","legacy","1024","2","48000","-16","experiment","4","even","present","80869","80868","NA","NA","1021","80852","105290","105808","1052","29630","51132","105808","106449","NA","105270","Fraction component detection task","20","13482","20","yes","1280"
"100","100","667.952380952","667.952380952","#808080","no","legacy","legacy","legacy","0","uniform","1","undefined","undefined","undefined","1","a","0","0","0","20","0","0","20","20","0","0","0","20","20","0","20","Tue May  1 10:34:00 2018","#000000","high","4","The main experiment item","yes","","exp1.osexp","/Users/tom/github/sft-fraction/exp1","no","mono","no","24","no","white","no","yes","800","legacy","20","20","0","/Users/tom/github/sft-fraction/exp1/data/subject-4b.csv","legacy","#757575","low","4","Jazzy James","3.1.9","0","a","NA","space","space","l","a","NA","545","NA","28559","21485","29713","545","NA","2","legacy","1024","2","48000","-16","experiment","4","even","absent","80869","80868","NA","NA","1021","80852","106533","107054","1052","29630","51132","107054","107600","NA","106516","Fraction component detection task","21","14027","21","yes","1280"
"100","100","664.090909091","664.090909091","#808080","no","legacy","legacy","legacy","0","uniform","1","undefined","undefined","undefined","1","l","0","0","0","21","0","0","21","21","0","0","0","21","21","0","21","Tue May  1 10:34:00 2018","#000000","high","6","The main experiment item","yes","","exp1.osexp","/Users/tom/github/sft-fraction/exp1","no","mono","no","24","no","white","no","yes","800","legacy","21","21","0","/Users/tom/github/sft-fraction/exp1/data/subject-4b.csv","legacy","#757575","low","4","Jazzy James","3.1.9","0","l","NA","space","space","l","l","NA","583","NA","28559","21485","29713","583","NA","2","legacy","1024","2","48000","-16","experiment","4","even","present","80869","80868","NA","NA","1021","80852","107683","108200","1052","29630","51132","108200","108784","NA","107667","Fraction component detection task","22","14610","22","yes","1280"
"100","100","662.260869565","662.260869565","#808080","no","legacy","legacy","legacy","0","uniform","1","undefined","undefined","undefined","1","l","0","0","0","22","0","0","22","22","0","0","0","22","22","0","22","Tue May  1 10:34:00 2018","#757575","low","7","The main experiment item","yes","","exp1.osexp","/Users/tom/github/sft-fraction/exp1","no","mono","no","24","no","white","no","yes","800","legacy","22","22","0","/Users/tom/github/sft-fraction/exp1/data/subject-4b.csv","legacy","#757575","low","8","Jazzy James","3.1.9","0","l","NA","space","space","l","l","NA","622","NA","28559","21485","29713","622","NA","2","legacy","1024","2","48000","-16","experiment","4","even","present","80869","80868","NA","NA","1021","80852","108864","109384","1052","29630","51132","109384","110008","NA","108849","Fraction component detection task","23","15232","23","yes","1280"
"100","100","660.541666667","660.541666667","#808080","no","legacy","legacy","legacy","0","uniform","1","undefined","undefined","undefined","1","l","0","0","0","23","0","0","23","23","0","0","0","23","23","0","23","Tue May  1 10:34:00 2018","#000000","high","8","The main experiment item","yes","","exp1.osexp","/Users/tom/github/sft-fraction/exp1","no","mono","no","24","no","white","no","yes","800","legacy","23","23","0","/Users/tom/github/sft-fraction/exp1/data/subject-4b.csv","legacy","#757575","low","2","Jazzy James","3.1.9","0","l","NA","space","space","l","l","NA","621","NA","28559","21485","29713","621","NA","2","legacy","1024","2","48000","-16","experiment","4","even","present","80869","80868","NA","NA","1021","80852","110091","110609","1052","29630","51132","110609","111232","NA","110076","Fraction component detection task","24","15853","24","yes","1280"
"100","100","661.2","661.2","#808080","no","legacy","legacy","legacy","0","uniform","1","undefined","undefined","undefined","1","a","0","0","0","24","0","0","24","24","0","0","0","24","24","0","24","Tue May  1 10:34:00 2018","#757575","low","4","The main experiment item","yes","","exp1.osexp","/Users/tom/github/sft-fraction/exp1","no","mono","no","24","no","white","no","yes","800","legacy","24","24","0","/Users/tom/github/sft-fraction/exp1/data/subject-4b.csv","legacy","#000000","high","2","Jazzy James","3.1.9","0","a","NA","space","space","l","a","NA","677","NA","28559","21485","29713","677","NA","2","legacy","1024","2","48000","-16","experiment","4","even","absent","80869","80868","NA","NA","1021","80852","111321","111842","1052","29630","51132","111842","112521","NA","111300","Fraction component detection task","25","16530","25","yes","1280"
"100","100","656.538461538","656.538461538","#808080","no","legacy","legacy","legacy","0","uniform","1","undefined","undefined","undefined","1","a","0","0","0","25","0","0","25","25","0","0","0","25","25","0","25","Tue May  1 10:34:00 2018","#757575","low","2","The main experiment item","yes","","exp1.osexp","/Users/tom/github/sft-fraction/exp1","no","mono","no","24","no","white","no","yes","800","legacy","25","25","0","/Users/tom/github/sft-fraction/exp1/data/subject-4b.csv","legacy","#000000","high","2","Jazzy James","3.1.9","0","a","NA","space","space","l","a","NA","540","NA","28559","21485","29713","540","NA","2","legacy","1024","2","48000","-16","experiment","4","even","absent","80869","80868","NA","NA","1021","80852","112607","113123","1052","29630","51132","113123","113665","NA","112586","Fraction component detection task","26","17070","26","yes","1280"
"100","100","654.37037037","654.37037037","#808080","no","legacy","legacy","legacy","0","uniform","1","undefined","undefined","undefined","1","l","0","0","0","26","0","0","26","26","0","0","0","26","26","0","26","Tue May  1 10:34:00 2018","#757575","low","4","The main experiment item","yes","","exp1.osexp","/Users/tom/github/sft-fraction/exp1","no","mono","no","24","no","white","no","yes","800","legacy","26","26","0","/Users/tom/github/sft-fraction/exp1/data/subject-4b.csv","legacy","#757575","low","6","Jazzy James","3.1.9","0","l","NA","space","space","l","l","NA","598","NA","28559","21485","29713","598","NA","2","legacy","1024","2","48000","-16","experiment","4","even","present","80869","80868","NA","NA","1021","80852","113747","114265","1052","29630","51132","114265","114865","NA","113732","Fraction component detection task","27","17668","27","yes","1280"
"100","100","651.678571429","651.678571429","#808080","no","legacy","legacy","legacy","0","uniform","1","undefined","undefined","undefined","1","l","0","0","0","27","0","0","27","27","0","0","0","27","27","0","27","Tue May  1 10:34:00 2018","#000000","high","7","The main experiment item","yes","","exp1.osexp","/Users/tom/github/sft-fraction/exp1","no","mono","no","24","no","white","no","yes","800","legacy","27","27","0","/Users/tom/github/sft-fraction/exp1/data/subject-4b.csv","legacy","#000000","high","2","Jazzy James","3.1.9","0","l","NA","space","space","l","l","NA","579","NA","28559","21485","29713","579","NA","2","legacy","1024","2","48000","-16","experiment","4","even","present","80869","80868","NA","NA","1021","80852","114946","115466","1052","29630","51132","115467","116048","NA","114931","Fraction component detection task","28","18247","28","yes","1280"
"100","100","649.862068966","649.862068966","#808080","no","legacy","legacy","legacy","0","uniform","1","undefined","undefined","undefined","1","l","0","0","0","28","0","0","28","28","0","0","0","28","28","0","28","Tue May  1 10:34:00 2018","#757575","low","8","The main experiment item","yes","","exp1.osexp","/Users/tom/github/sft-fraction/exp1","no","mono","no","24","no","white","no","yes","800","legacy","28","28","0","/Users/tom/github/sft-fraction/exp1/data/subject-4b.csv","legacy","#000000","high","6","Jazzy James","3.1.9","0","l","NA","space","space","l","l","NA","599","NA","28559","21485","29713","599","NA","2","legacy","1024","2","48000","-16","experiment","4","even","present","80869","80868","NA","NA","1021","80852","116136","116654","1052","29630","51132","116655","117256","NA","116116","Fraction component detection task","29","18846","29","yes","1280"
"100","100","645.666666667","645.666666667","#808080","no","legacy","legacy","legacy","0","uniform","1","undefined","undefined","undefined","1","l","0","0","0","29","0","0","29","29","0","0","0","29","29","0","29","Tue May  1 10:34:00 2018","#000000","high","2","The main experiment item","yes","","exp1.osexp","/Users/tom/github/sft-fraction/exp1","no","mono","no","24","no","white","no","yes","800","legacy","29","29","0","/Users/tom/github/sft-fraction/exp1/data/subject-4b.csv","legacy","#000000","high","6","Jazzy James","3.1.9","0","l","NA","space","space","l","l","NA","524","NA","28559","21485","29713","524","NA","2","legacy","1024","2","48000","-16","experiment","4","even","present","80869","80868","NA","NA","1021","80852","117340","117859","1052","29630","51132","117859","118385","NA","117321","Fraction component detection task","30","19370","30","yes","1280"
"100","100","646.548387097","646.548387097","#808080","no","legacy","legacy","legacy","0","uniform","1","undefined","undefined","undefined","1","l","0","0","0","30","0","0","30","30","0","0","0","30","30","0","30","Tue May  1 10:34:00 2018","#000000","high","8","The main experiment item","yes","","exp1.osexp","/Users/tom/github/sft-fraction/exp1","no","mono","no","24","no","white","no","yes","800","legacy","30","30","0","/Users/tom/github/sft-fraction/exp1/data/subject-4b.csv","legacy","#000000","high","2","Jazzy James","3.1.9","0","l","NA","space","space","l","l","NA","673","NA","28559","21485","29713","673","NA","2","legacy","1024","2","48000","-16","experiment","4","even","present","80869","80868","NA","NA","1021","80852","118473","118990","1052","29630","51132","118990","119665","NA","118453","Fraction component detection task","31","20043","31","yes","1280"
"100","100","645.25","645.25","#808080","no","legacy","legacy","legacy","0","uniform","1","undefined","undefined","undefined","1","a","0","0","0","31","0","0","31","31","0","0","0","31","31","0","31","Tue May  1 10:34:00 2018","#000000","high","3","The main experiment item","yes","","exp1.osexp","/Users/tom/github/sft-fraction/exp1","no","mono","no","24","no","white","no","yes","800","legacy","31","31","0","/Users/tom/github/sft-fraction/exp1/data/subject-4b.csv","legacy","#000000","high","4","Jazzy James","3.1.9","0","a","NA","space","space","l","a","NA","605","NA","28559","21485","29713","605","NA","2","legacy","1024","2","48000","-16","experiment","4","even","absent","80869","80868","NA","NA","1021","80852","119748","120265","1052","29630","51132","120266","120873","NA","119732","Fraction component detection task","32","20648","32","yes","1280"
"100","100","644.060606061","644.060606061","#808080","no","legacy","legacy","legacy","0","uniform","1","undefined","undefined","undefined","1","l","0","0","0","32","0","0","32","32","0","0","0","32","32","0","32","Tue May  1 10:34:00 2018","#000000","high","3","The main experiment item","yes","","exp1.osexp","/Users/tom/github/sft-fraction/exp1","no","mono","no","24","no","white","no","yes","800","legacy","32","32","0","/Users/tom/github/sft-fraction/exp1/data/subject-4b.csv","legacy","#757575","low","8","Jazzy James","3.1.9","0","l","NA","space","space","l","l","NA","606","NA","28559","21485","29713","606","NA","2","legacy","1024","2","48000","-16","experiment","4","even","present","80869","80868","NA","NA","1021","80852","120964","121480","1052","29630","51132","121480","122088","NA","120942","Fraction component detection task","33","21254","33","yes","1280"
"100","100","642.617647059","642.617647059","#808080","no","legacy","legacy","legacy","0","uniform","1","undefined","undefined","undefined","1","l","0","0","0","33","0","0","33","33","0","0","0","33","33","0","33","Tue May  1 10:34:00 2018","#000000","high","6","The main experiment item","yes","","exp1.osexp","/Users/tom/github/sft-fraction/exp1","no","mono","no","24","no","white","no","yes","800","legacy","33","33","0","/Users/tom/github/sft-fraction/exp1/data/subject-4b.csv","legacy","#757575","low","7","Jazzy James","3.1.9","0","l","NA","space","space","l","l","NA","595","NA","28559","21485","29713","595","NA","2","legacy","1024","2","48000","-16","experiment","4","even","present","80869","80868","NA","NA","1021","80852","122172","122691","1052","29630","51132","122691","123288","NA","122156","Fraction component detection task","34","21849","34","yes","1280"
"100","100","640.028571429","640.028571429","#808080","no","legacy","legacy","legacy","0","uniform","1","undefined","undefined","undefined","1","l","0","0","0","34","0","0","34","34","0","0","0","34","34","0","34","Tue May  1 10:34:00 2018","#757575","low","8","The main experiment item","yes","","exp1.osexp","/Users/tom/github/sft-fraction/exp1","no","mono","no","24","no","white","no","yes","800","legacy","34","34","0","/Users/tom/github/sft-fraction/exp1/data/subject-4b.csv","legacy","#757575","low","7","Jazzy James","3.1.9","0","l","NA","space","space","l","l","NA","552","NA","28559","21485","29713","552","NA","2","legacy","1024","2","48000","-16","experiment","4","even","present","80869","80868","NA","NA","1021","80852","123378","123895","1052","29630","51132","123895","124449","NA","123362","Fraction component detection task","35","22401","35","yes","1280"
"100","100","640.055555556","640.055555556","#808080","no","legacy","legacy","legacy","0","uniform","1","undefined","undefined","undefined","1","l","0","0","0","35","0","0","35","35","0","0","0","35","35","0","35","Tue May  1 10:34:00 2018","#757575","low","7","The main experiment item","yes","","exp1.osexp","/Users/tom/github/sft-fraction/exp1","no","mono","no","24","no","white","no","yes","800","legacy","35","35","0","/Users/tom/github/sft-fraction/exp1/data/subject-4b.csv","legacy","#000000","high","3","Jazzy James","3.1.9","0","l","NA","space","space","l","l","NA","641","NA","28559","21485","29713","641","NA","2","legacy","1024","2","48000","-16","experiment","4","even","present","80869","80868","NA","NA","1021","80852","124536","125054","1052","29630","51132","125054","125698","NA","124518","Fraction component detection task","36","23042","36","yes","1280"
"100","100","637.324324324","637.324324324","#808080","no","legacy","legacy","legacy","0","uniform","1","undefined","undefined","undefined","1","l","0","0","0","36","0","0","36","36","0","0","0","36","36","0","36","Tue May  1 10:34:00 2018","#757575","low","7","The main experiment item","yes","","exp1.osexp","/Users/tom/github/sft-fraction/exp1","no","mono","no","24","no","white","no","yes","800","legacy","36","36","0","/Users/tom/github/sft-fraction/exp1/data/subject-4b.csv","legacy","#757575","low","7","Jazzy James","3.1.9","0","l","NA","space","space","l","l","NA","539","NA","28559","21485","29713","539","NA","2","legacy","1024","2","48000","-16","experiment","4","even","present","80869","80868","NA","NA","1021","80852","125783","126300","1052","29630","51132","126300","126842","NA","125762","Fraction component detection task","37","23581","37","yes","1280"
"100","100","634.657894737","634.657894737","#808080","no","legacy","legacy","legacy","0","uniform","1","undefined","undefined","undefined","1","a","0","0","0","37","0","0","37","37","0","0","0","37","37","0","37","Tue May  1 10:34:00 2018","#757575","low","2","The main experiment item","yes","","exp1.osexp","/Users/tom/github/sft-fraction/exp1","no","mono","no","24","no","white","no","yes","800","legacy","37","37","0","/Users/tom/github/sft-fraction/exp1/data/subject-4b.csv","legacy","#000000","high","4","Jazzy James","3.1.9","0","a","NA","space","space","l","a","NA","536","NA","28559","21485","29713","536","NA","2","legacy","1024","2","48000","-16","experiment","4","even","absent","80869","80868","NA","NA","1021","80852","126923","127440","1052","29630","51132","127440","127978","NA","126908","Fraction component detection task","38","24117","38","yes","1280"
"100","100","632.692307692","632.692307692","#808080","no","legacy","legacy","legacy","0","uniform","1","undefined","undefined","undefined","1","l","0","0","0","38","0","0","38","38","0","0","0","38","38","0","38","Tue May  1 10:34:00 2018","#757575","low","4","The main experiment item","yes","","exp1.osexp","/Users/tom/github/sft-fraction/exp1","no","mono","no","24","no","white","no","yes","800","legacy","38","38","0","/Users/tom/github/sft-fraction/exp1/data/subject-4b.csv","legacy","#000000","high","8","Jazzy James","3.1.9","0","l","NA","space","space","l","l","NA","558","NA","28559","21485","29713","558","NA","2","legacy","1024","2","48000","-16","experiment","4","even","present","80869","80868","NA","NA","1021","80852","128058","128577","1052","29630","51132","128577","129137","NA","128042","Fraction component detection task","39","24675","39","yes","1280"
"100","100","630.35","630.35","#808080","no","legacy","legacy","legacy","0","uniform","1","undefined","undefined","undefined","1","a","0","0","0","39","0","0","39","39","0","0","0","39","39","0","39","Tue May  1 10:34:00 2018","#000000","high","4","The main experiment item","yes","","exp1.osexp","/Users/tom/github/sft-fraction/exp1","no","mono","no","24","no","white","no","yes","800","legacy","39","39","0","/Users/tom/github/sft-fraction/exp1/data/subject-4b.csv","legacy","#757575","low","3","Jazzy James","3.1.9","0","a","NA","space","space","l","a","NA","539","NA","28559","21485","29713","539","NA","2","legacy","1024","2","48000","-16","experiment","4","even","absent","80869","80868","NA","NA","1021","80852","129231","129748","1052","29630","51132","129748","130289","NA","129209","Fraction component detection task","40","25214","40","yes","1280"
"100","100","628.829268293","628.829268293","#808080","no","legacy","legacy","legacy","0","uniform","1","undefined","undefined","undefined","1","a","0","0","0","40","0","0","40","40","0","0","0","40","40","0","40","Tue May  1 10:34:00 2018","#000000","high","4","The main experiment item","yes","","exp1.osexp","/Users/tom/github/sft-fraction/exp1","no","mono","no","24","no","white","no","yes","800","legacy","40","40","0","/Users/tom/github/sft-fraction/exp1/data/subject-4b.csv","legacy","#757575","low","2","Jazzy James","3.1.9","0","a","NA","space","space","l","a","NA","568","NA","28559","21485","29713","568","NA","2","legacy","1024","2","48000","-16","experiment","4","even","absent","80869","80868","NA","NA","1021","80852","130376","130895","1052","29630","51132","130896","131466","NA","130359","Fraction component detection task","41","25782","41","yes","1280"
"100","100","628.952380952","628.952380952","#808080","no","legacy","legacy","legacy","0","uniform","1","undefined","undefined","undefined","1","a","0","0","0","41","0","0","41","41","0","0","0","41","41","0","41","Tue May  1 10:34:00 2018","#757575","low","4","The main experiment item","yes","","exp1.osexp","/Users/tom/github/sft-fraction/exp1","no","mono","no","24","no","white","no","yes","800","legacy","41","41","0","/Users/tom/github/sft-fraction/exp1/data/subject-4b.csv","legacy","#757575","low","3","Jazzy James","3.1.9","0","a","NA","space","space","l","a","NA","634","NA","28559","21485","29713","634","NA","2","legacy","1024","2","48000","-16","experiment","4","even","absent","80869","80868","NA","NA","1021","80852","131553","132070","1052","29630","51132","132070","132708","NA","131536","Fraction component detection task","42","26416","42","yes","1280"
"100","100","627.209302326","627.209302326","#808080","no","legacy","legacy","legacy","0","uniform","1","undefined","undefined","undefined","1","a","0","0","0","42","0","0","42","42","0","0","0","42","42","0","42","Tue May  1 10:34:00 2018","#757575","low","3","The main experiment item","yes","","exp1.osexp","/Users/tom/github/sft-fraction/exp1","no","mono","no","24","no","white","no","yes","800","legacy","42","42","0","/Users/tom/github/sft-fraction/exp1/data/subject-4b.csv","legacy","#757575","low","3","Jazzy James","3.1.9","0","a","NA","space","space","l","a","NA","554","NA","28559","21485","29713","554","NA","2","legacy","1024","2","48000","-16","experiment","4","even","absent","80869","80868","NA","NA","1021","80852","132794","133310","1052","29630","51132","133310","133866","NA","132773","Fraction component detection task","43","26970","43","yes","1280"
"100","100","626.181818182","626.181818182","#808080","no","legacy","legacy","legacy","0","uniform","1","undefined","undefined","undefined","1","a","0","0","0","43","0","0","43","43","0","0","0","43","43","0","43","Tue May  1 10:34:00 2018","#000000","high","2","The main experiment item","yes","","exp1.osexp","/Users/tom/github/sft-fraction/exp1","no","mono","no","24","no","white","no","yes","800","legacy","43","43","0","/Users/tom/github/sft-fraction/exp1/data/subject-4b.csv","legacy","#000000","high","2","Jazzy James","3.1.9","0","a","NA","space","space","l","a","NA","582","NA","28559","21485","29713","582","NA","2","legacy","1024","2","48000","-16","experiment","4","even","absent","80869","80868","NA","NA","1021","80852","133954","134473","1052","29630","51132","134473","135057","NA","133937","Fraction component detection task","44","27552","44","yes","1280"
"100","100","624.533333333","624.533333333","#808080","no","legacy","legacy","legacy","0","uniform","1","undefined","undefined","undefined","1","l","0","0","0","44","0","0","44","44","0","0","0","44","44","0","44","Tue May  1 10:34:00 2018","#000000","high","2","The main experiment item","yes","","exp1.osexp","/Users/tom/github/sft-fraction/exp1","no","mono","no","24","no","white","no","yes","800","legacy","44","44","0","/Users/tom/github/sft-fraction/exp1/data/subject-4b.csv","legacy","#000000","high","8","Jazzy James","3.1.9","0","l","NA","space","space","l","l","NA","552","NA","28559","21485","29713","552","NA","2","legacy","1024","2","48000","-16","experiment","4","even","present","80869","80868","NA","NA","1021","80852","135143","135662","1052","29630","51132","135663","136217","NA","135127","Fraction component detection task","45","28104","45","yes","1280"
"100","100","623.02173913","623.02173913","#808080","no","legacy","legacy","legacy","0","uniform","1","undefined","undefined","undefined","1","a","0","0","0","45","0","0","45","45","0","0","0","45","45","0","45","Tue May  1 10:34:00 2018","#000000","high","2","The main experiment item","yes","","exp1.osexp","/Users/tom/github/sft-fraction/exp1","no","mono","no","24","no","white","no","yes","800","legacy","45","45","0","/Users/tom/github/sft-fraction/exp1/data/subject-4b.csv","legacy","#757575","low","3","Jazzy James","3.1.9","0","a","NA","space","space","l","a","NA","555","NA","28559","21485","29713","555","NA","2","legacy","1024","2","48000","-16","experiment","4","even","absent","80869","80868","NA","NA","1021","80852","136303","136820","1052","29630","51132","136821","137378","NA","136282","Fraction component detection task","46","28659","46","yes","1280"
"100","100","621.319148936","621.319148936","#808080","no","legacy","legacy","legacy","0","uniform","1","undefined","undefined","undefined","1","a","0","0","0","46","0","0","46","46","0","0","0","46","46","0","46","Tue May  1 10:34:00 2018","#757575","low","2","The main experiment item","yes","","exp1.osexp","/Users/tom/github/sft-fraction/exp1","no","mono","no","24","no","white","no","yes","800","legacy","46","46","0","/Users/tom/github/sft-fraction/exp1/data/subject-4b.csv","legacy","#000000","high","3","Jazzy James","3.1.9","0","a","NA","space","space","l","a","NA","543","NA","28559","21485","29713","543","NA","2","legacy","1024","2","48000","-16","experiment","4","even","absent","80869","80868","NA","NA","1021","80852","137467","137984","1052","29630","51132","137985","138531","NA","137447","Fraction component detection task","47","29202","47","yes","1280"
"100","100","620.0625","620.0625","#808080","no","legacy","legacy","legacy","0","uniform","1","undefined","undefined","undefined","1","a","0","0","0","47","0","0","47","47","0","0","0","47","47","0","47","Tue May  1 10:34:00 2018","#757575","low","4","The main experiment item","yes","","exp1.osexp","/Users/tom/github/sft-fraction/exp1","no","mono","no","24","no","white","no","yes","800","legacy","47","47","0","/Users/tom/github/sft-fraction/exp1/data/subject-4b.csv","legacy","#000000","high","4","Jazzy James","3.1.9","0","a","NA","space","space","l","a","NA","561","NA","28559","21485","29713","561","NA","2","legacy","1024","2","48000","-16","experiment","4","even","absent","80869","80868","NA","NA","1021","80852","138624","139142","1052","29630","51132","139143","139707","NA","138603","Fraction component detection task","48","29763","48","yes","1280"
"100","100","619.285714286","619.285714286","#808080","no","legacy","legacy","legacy","0","uniform","1","undefined","undefined","undefined","1","a","0","0","0","48","0","0","48","48","0","0","0","48","48","0","48","Tue May  1 10:34:00 2018","#000000","high","2","The main experiment item","yes","","exp1.osexp","/Users/tom/github/sft-fraction/exp1","no","mono","no","24","no","white","no","yes","800","legacy","48","48","0","/Users/tom/github/sft-fraction/exp1/data/subject-4b.csv","legacy","#757575","low","3","Jazzy James","3.1.9","0","a","NA","space","space","l","a","NA","582","NA","28559","21485","29713","582","NA","2","legacy","1024","2","48000","-16","experiment","4","even","absent","80869","80868","NA","NA","1021","80852","139788","140307","1052","29630","51132","140307","140892","NA","139772","Fraction component detection task","49","30345","49","yes","1280"
"100","100","619.1","619.1","#808080","no","legacy","legacy","legacy","0","uniform","1","undefined","undefined","undefined","1","a","0","0","0","49","0","0","49","49","0","0","0","49","49","0","49","Tue May  1 10:34:00 2018","#757575","low","2","The main experiment item","yes","","exp1.osexp","/Users/tom/github/sft-fraction/exp1","no","mono","no","24","no","white","no","yes","800","legacy","49","49","0","/Users/tom/github/sft-fraction/exp1/data/subject-4b.csv","legacy","#757575","low","4","Jazzy James","3.1.9","0","a","NA","space","space","l","a","NA","610","NA","28559","21485","29713","610","NA","2","legacy","1024","2","48000","-16","experiment","4","even","absent","80869","80868","NA","NA","1021","80852","140976","141492","1052","29630","51132","141493","142106","NA","140955","Fraction component detection task","50","30955","50","yes","1280"
"100","100","618.392156863","618.392156863","#808080","no","legacy","legacy","legacy","0","uniform","1","undefined","undefined","undefined","1","l","0","0","0","50","0","0","50","50","0","0","0","50","50","0","50","Tue May  1 10:34:00 2018","#000000","high","4","The main experiment item","yes","","exp1.osexp","/Users/tom/github/sft-fraction/exp1","no","mono","no","24","no","white","no","yes","800","legacy","50","50","0","/Users/tom/github/sft-fraction/exp1/data/subject-4b.csv","legacy","#000000","high","8","Jazzy James","3.1.9","0","l","NA","space","space","l","l","NA","583","NA","28559","21485","29713","583","NA","2","legacy","1024","2","48000","-16","experiment","4","even","present","80869","80868","NA","NA","1021","80852","142202","142720","1052","29630","51132","142720","143306","NA","142181","Fraction component detection task","51","31538","51","yes","1280"
"100","100","616.423076923","616.423076923","#808080","no","legacy","legacy","legacy","0","uniform","1","undefined","undefined","undefined","1","a","0","0","0","51","0","0","51","51","0","0","0","51","51","0","51","Tue May  1 10:34:00 2018","#000000","high","2","The main experiment item","yes","","exp1.osexp","/Users/tom/github/sft-fraction/exp1","no","mono","no","24","no","white","no","yes","800","legacy","51","51","0","/Users/tom/github/sft-fraction/exp1/data/subject-4b.csv","legacy","#757575","low","2","Jazzy James","3.1.9","0","a","NA","space","space","l","a","NA","516","NA","28559","21485","29713","516","NA","2","legacy","1024","2","48000","-16","experiment","4","even","absent","80869","80868","NA","NA","1021","80852","143398","143916","1052","29630","51132","143916","144435","NA","143374","Fraction component detection task","52","32054","52","yes","1280"
"100","100","617.226415094","617.226415094","#808080","no","legacy","legacy","legacy","0","uniform","1","undefined","undefined","undefined","1","a","0","0","0","52","0","0","52","52","0","0","0","52","52","0","52","Tue May  1 10:34:00 2018","#000000","high","4","The main experiment item","yes","","exp1.osexp","/Users/tom/github/sft-fraction/exp1","no","mono","no","24","no","white","no","yes","800","legacy","52","52","0","/Users/tom/github/sft-fraction/exp1/data/subject-4b.csv","legacy","#000000","high","4","Jazzy James","3.1.9","0","a","NA","space","space","l","a","NA","659","NA","28559","21485","29713","659","NA","2","legacy","1024","2","48000","-16","experiment","4","even","absent","80869","80868","NA","NA","1021","80852","144520","145037","1052","29630","51132","145038","145699","NA","144499","Fraction component detection task","53","32713","53","yes","1280"
"100","100","616.444444444","616.444444444","#808080","no","legacy","legacy","legacy","0","uniform","1","undefined","undefined","undefined","1","l","0","0","0","53","0","0","53","53","0","0","0","53","53","0","53","Tue May  1 10:34:00 2018","#000000","high","6","The main experiment item","yes","","exp1.osexp","/Users/tom/github/sft-fraction/exp1","no","mono","no","24","no","white","no","yes","800","legacy","53","53","0","/Users/tom/github/sft-fraction/exp1/data/subject-4b.csv","legacy","#000000","high","6","Jazzy James","3.1.9","0","l","NA","space","space","l","l","NA","575","NA","28559","21485","29713","575","NA","2","legacy","1024","2","48000","-16","experiment","4","even","present","80869","80868","NA","NA","1021","80852","145779","146298","1052","29630","51132","146298","146875","NA","145764","Fraction component detection task","54","33288","54","yes","1280"
"100","100","615.327272727","615.327272727","#808080","no","legacy","legacy","legacy","0","uniform","1","undefined","undefined","undefined","1","l","0","0","0","54","0","0","54","54","0","0","0","54","54","0","54","Tue May  1 10:34:00 2018","#000000","high","3","The main experiment item","yes","","exp1.osexp","/Users/tom/github/sft-fraction/exp1","no","mono","no","24","no","white","no","yes","800","legacy","54","54","0","/Users/tom/github/sft-fraction/exp1/data/subject-4b.csv","legacy","#757575","low","6","Jazzy James","3.1.9","0","l","NA","space","space","l","l","NA","555","NA","28559","21485","29713","555","NA","2","legacy","1024","2","48000","-16","experiment","4","even","present","80869","80868","NA","NA","1021","80852","146957","147476","1052","29630","51132","147477","148034","NA","146941","Fraction component detection task","55","33843","55","yes","1280"
"100","100","613.75","613.75","#808080","no","legacy","legacy","legacy","0","uniform","1","undefined","undefined","undefined","1","a","0","0","0","55","0","0","55","55","0","0","0","55","55","0","55","Tue May  1 10:34:00 2018","#000000","high","2","The main experiment item","yes","","exp1.osexp","/Users/tom/github/sft-fraction/exp1","no","mono","no","24","no","white","no","yes","800","legacy","55","55","0","/Users/tom/github/sft-fraction/exp1/data/subject-4b.csv","legacy","#757575","low","2","Jazzy James","3.1.9","0","a","NA","space","space","l","a","NA","527","NA","28559","21485","29713","527","NA","2","legacy","1024","2","48000","-16","experiment","4","even","absent","80869","80868","NA","NA","1021","80852","148121","148640","1052","29630","51132","148641","149170","NA","148105","Fraction component detection task","56","34370","56","yes","1280"
"100","100","615.947368421","615.947368421","#808080","no","legacy","legacy","legacy","0","uniform","1","undefined","undefined","undefined","1","l","0","0","0","56","0","0","56","56","0","0","0","56","56","0","56","Tue May  1 10:34:00 2018","#757575","low","8","The main experiment item","yes","","exp1.osexp","/Users/tom/github/sft-fraction/exp1","no","mono","no","24","no","white","no","yes","800","legacy","56","56","0","/Users/tom/github/sft-fraction/exp1/data/subject-4b.csv","legacy","#757575","low","2","Jazzy James","3.1.9","0","l","NA","space","space","l","l","NA","739","NA","28559","21485","29713","739","NA","2","legacy","1024","2","48000","-16","experiment","4","even","present","80869","80868","NA","NA","1021","80852","149257","149774","1052","29630","51132","149774","150515","NA","149236","Fraction component detection task","57","35109","57","yes","1280"
"100","100","624.362068966","624.362068966","#808080","no","legacy","legacy","legacy","0","uniform","1","undefined","undefined","undefined","1","a","0","0","0","57","0","0","57","57","0","0","0","57","57","0","57","Tue May  1 10:34:00 2018","#000000","high","4","The main experiment item","yes","","exp1.osexp","/Users/tom/github/sft-fraction/exp1","no","mono","no","24","no","white","no","yes","800","legacy","57","57","0","/Users/tom/github/sft-fraction/exp1/data/subject-4b.csv","legacy","#757575","low","3","Jazzy James","3.1.9","0","a","NA","space","space","l","a","NA","1104","NA","28559","21485","29713","1104","NA","2","legacy","1024","2","48000","-16","experiment","4","even","absent","80869","80868","NA","NA","1021","80852","150596","151112","1052","29630","51132","151112","152218","NA","150580","Fraction component detection task","58","36213","58","yes","1280"
"100","100","622","622","#808080","no","legacy","legacy","legacy","0","uniform","1","undefined","undefined","undefined","1","a","0","0","0","58","0","0","58","58","0","0","0","58","58","0","58","Tue May  1 10:34:00 2018","#000000","high","3","The main experiment item","yes","","exp1.osexp","/Users/tom/github/sft-fraction/exp1","no","mono","no","24","no","white","no","yes","800","legacy","58","58","0","/Users/tom/github/sft-fraction/exp1/data/subject-4b.csv","legacy","#000000","high","3","Jazzy James","3.1.9","0","a","NA","space","space","l","a","NA","485","NA","28559","21485","29713","485","NA","2","legacy","1024","2","48000","-16","experiment","4","even","absent","80869","80868","NA","NA","1021","80852","152309","152827","1052","29630","51132","152827","153314","NA","152288","Fraction component detection task","59","36698","59","yes","1280"
"100","100","621.8","621.8","#808080","no","legacy","legacy","legacy","0","uniform","1","undefined","undefined","undefined","1","l","0","0","0","59","0","0","59","59","0","0","0","59","59","0","59","Tue May  1 10:34:00 2018","#757575","low","7","The main experiment item","yes","","exp1.osexp","/Users/tom/github/sft-fraction/exp1","no","mono","no","24","no","white","no","yes","800","legacy","59","59","0","/Users/tom/github/sft-fraction/exp1/data/subject-4b.csv","legacy","#757575","low","6","Jazzy James","3.1.9","0","l","NA","space","space","l","l","NA","610","NA","28559","21485","29713","610","NA","2","legacy","1024","2","48000","-16","experiment","4","even","present","80869","80868","NA","NA","1021","80852","153403","153919","1052","29630","51132","153919","154531","NA","153387","Fraction component detection task","60","37308","60","yes","1280"
"100","100","620.803278689","620.803278689","#808080","no","legacy","legacy","legacy","0","uniform","1","undefined","undefined","undefined","1","a","0","0","0","60","0","0","60","60","0","0","0","60","60","0","60","Tue May  1 10:34:00 2018","#000000","high","3","The main experiment item","yes","","exp1.osexp","/Users/tom/github/sft-fraction/exp1","no","mono","no","24","no","white","no","yes","800","legacy","60","60","0","/Users/tom/github/sft-fraction/exp1/data/subject-4b.csv","legacy","#757575","low","4","Jazzy James","3.1.9","0","a","NA","space","space","l","a","NA","561","NA","28559","21485","29713","561","NA","2","legacy","1024","2","48000","-16","experiment","4","even","absent","80869","80868","NA","NA","1021","80852","154615","155136","1052","29630","51132","155136","155699","NA","154599","Fraction component detection task","61","37869","61","yes","1280"
"100","100","619.129032258","619.129032258","#808080","no","legacy","legacy","legacy","0","uniform","1","undefined","undefined","undefined","1","a","0","0","0","61","0","0","61","61","0","0","0","61","61","0","61","Tue May  1 10:34:00 2018","#757575","low","3","The main experiment item","yes","","exp1.osexp","/Users/tom/github/sft-fraction/exp1","no","mono","no","24","no","white","no","yes","800","legacy","61","61","0","/Users/tom/github/sft-fraction/exp1/data/subject-4b.csv","legacy","#757575","low","3","Jazzy James","3.1.9","0","a","NA","space","space","l","a","NA","517","NA","28559","21485","29713","517","NA","2","legacy","1024","2","48000","-16","experiment","4","even","absent","80869","80868","NA","NA","1021","80852","155780","156300","1052","29630","51132","156300","156820","NA","155764","Fraction component detection task","62","38386","62","yes","1280"
"100","100","619.206349206","619.206349206","#808080","no","legacy","legacy","legacy","0","uniform","1","undefined","undefined","undefined","1","l","0","0","0","62","0","0","62","62","0","0","0","62","62","0","62","Tue May  1 10:34:00 2018","#000000","high","2","The main experiment item","yes","","exp1.osexp","/Users/tom/github/sft-fraction/exp1","no","mono","no","24","no","white","no","yes","800","legacy","62","62","0","/Users/tom/github/sft-fraction/exp1/data/subject-4b.csv","legacy","#757575","low","8","Jazzy James","3.1.9","0","l","NA","space","space","l","l","NA","624","NA","28559","21485","29713","624","NA","2","legacy","1024","2","48000","-16","experiment","4","even","present","80869","80868","NA","NA","1021","80852","156906","157423","1052","29630","51132","157424","158051","NA","156886","Fraction component detection task","63","39010","63","yes","1280"
"100","100","619.03125","619.03125","#808080","no","legacy","legacy","legacy","0","uniform","1","undefined","undefined","undefined","1","l","0","0","0","63","0","0","63","63","0","0","0","63","63","0","63","Tue May  1 10:34:00 2018","#000000","high","2","The main experiment item","yes","","exp1.osexp","/Users/tom/github/sft-fraction/exp1","no","mono","no","24","no","white","no","yes","800","legacy","63","63","0","/Users/tom/github/sft-fraction/exp1/data/subject-4b.csv","legacy","#000000","high","7","Jazzy James","3.1.9","0","l","NA","space","space","l","l","NA","608","NA","28559","21485","29713","608","NA","2","legacy","1024","2","48000","-16","experiment","4","even","present","80869","80868","NA","NA","1021","80852","158139","158656","1052","29630","51132","158656","159267","NA","158118","Fraction component detection task","64","39618","64","yes","1280"
"100","100","617.676923077","617.676923077","#808080","no","legacy","legacy","legacy","0","uniform","1","undefined","undefined","undefined","1","a","0","0","0","64","0","0","64","64","0","0","0","64","64","0","64","Tue May  1 10:34:00 2018","#757575","low","3","The main experiment item","yes","","exp1.osexp","/Users/tom/github/sft-fraction/exp1","no","mono","no","24","no","white","no","yes","800","legacy","64","64","0","/Users/tom/github/sft-fraction/exp1/data/subject-4b.csv","legacy","#757575","low","2","Jazzy James","3.1.9","0","a","NA","space","space","l","a","NA","531","NA","28559","21485","29713","531","NA","2","legacy","1024","2","48000","-16","experiment","4","even","absent","80869","80868","NA","NA","1021","80852","159354","159870","1052","29630","51132","159870","160404","NA","159336","Fraction component detection task","65","40149","65","yes","1280"
"100","100","616.242424242","616.242424242","#808080","no","legacy","legacy","legacy","0","uniform","1","undefined","undefined","undefined","1","a","0","0","0","65","0","0","65","65","0","0","0","65","65","0","65","Tue May  1 10:34:00 2018","#000000","high","3","The main experiment item","yes","","exp1.osexp","/Users/tom/github/sft-fraction/exp1","no","mono","no","24","no","white","no","yes","800","legacy","65","65","0","/Users/tom/github/sft-fraction/exp1/data/subject-4b.csv","legacy","#757575","low","4","Jazzy James","3.1.9","0","a","NA","space","space","l","a","NA","523","NA","28559","21485","29713","523","NA","2","legacy","1024","2","48000","-16","experiment","4","even","absent","80869","80868","NA","NA","1021","80852","160488","161006","1052","29630","51132","161006","161532","NA","160468","Fraction component detection task","66","40672","66","yes","1280"
"100","100","614.701492537","614.701492537","#808080","no","legacy","legacy","legacy","0","uniform","1","undefined","undefined","undefined","1","a","0","0","0","66","0","0","66","66","0","0","0","66","66","0","66","Tue May  1 10:34:00 2018","#000000","high","2","The main experiment item","yes","","exp1.osexp","/Users/tom/github/sft-fraction/exp1","no","mono","no","24","no","white","no","yes","800","legacy","66","66","0","/Users/tom/github/sft-fraction/exp1/data/subject-4b.csv","legacy","#757575","low","4","Jazzy James","3.1.9","0","a","NA","space","space","l","a","NA","513","NA","28559","21485","29713","513","NA","2","legacy","1024","2","48000","-16","experiment","4","even","absent","80869","80868","NA","NA","1021","80852","161623","162144","1052","29630","51132","162144","162660","NA","161603","Fraction component detection task","67","41185","67","yes","1280"
"100","100","614.132352941","614.132352941","#808080","no","legacy","legacy","legacy","0","uniform","1","undefined","undefined","undefined","1","l","0","0","0","67","0","0","67","67","0","0","0","67","67","0","67","Tue May  1 10:34:00 2018","#000000","high","4","The main experiment item","yes","","exp1.osexp","/Users/tom/github/sft-fraction/exp1","no","mono","no","24","no","white","no","yes","800","legacy","67","67","0","/Users/tom/github/sft-fraction/exp1/data/subject-4b.csv","legacy","#757575","low","6","Jazzy James","3.1.9","0","l","NA","space","space","l","l","NA","576","NA","28559","21485","29713","576","NA","2","legacy","1024","2","48000","-16","experiment","4","even","present","80869","80868","NA","NA","1021","80852","162745","163265","1052","29630","51132","163265","163844","NA","162724","Fraction component detection task","68","41761","68","yes","1280"
"100","100","612.449275362","612.449275362","#808080","no","legacy","legacy","legacy","0","uniform","1","undefined","undefined","undefined","1","a","0","0","0","68","0","0","68","68","0","0","0","68","68","0","68","Tue May  1 10:34:00 2018","#757575","low","2","The main experiment item","yes","","exp1.osexp","/Users/tom/github/sft-fraction/exp1","no","mono","no","24","no","white","no","yes","800","legacy","68","68","0","/Users/tom/github/sft-fraction/exp1/data/subject-4b.csv","legacy","#000000","high","3","Jazzy James","3.1.9","0","a","NA","space","space","l","a","NA","498","NA","28559","21485","29713","498","NA","2","legacy","1024","2","48000","-16","experiment","4","even","absent","80869","80868","NA","NA","1021","80852","163935","164455","1052","29630","51132","164455","164956","NA","163914","Fraction component detection task","69","42259","69","yes","1280"
"100","100","611.357142857","611.357142857","#808080","no","legacy","legacy","legacy","0","uniform","1","undefined","undefined","undefined","1","l","0","0","0","69","0","0","69","69","0","0","0","69","69","0","69","Tue May  1 10:34:00 2018","#000000","high","6","The main experiment item","yes","","exp1.osexp","/Users/tom/github/sft-fraction/exp1","no","mono","no","24","no","white","no","yes","800","legacy","69","69","0","/Users/tom/github/sft-fraction/exp1/data/subject-4b.csv","legacy","#757575","low","8","Jazzy James","3.1.9","0","l","NA","space","space","l","l","NA","536","NA","28559","21485","29713","536","NA","2","legacy","1024","2","48000","-16","experiment","4","even","present","80869","80868","NA","NA","1021","80852","165044","165561","1052","29630","51132","165561","166100","NA","165022","Fraction component detection task","70","42795","70","yes","1280"
"100","100","610.352112676","610.352112676","#808080","no","legacy","legacy","legacy","0","uniform","1","undefined","undefined","undefined","1","l","0","0","0","70","0","0","70","70","0","0","0","70","70","0","70","Tue May  1 10:34:00 2018","#757575","low","4","The main experiment item","yes","","exp1.osexp","/Users/tom/github/sft-fraction/exp1","no","mono","no","24","no","white","no","yes","800","legacy","70","70","0","/Users/tom/github/sft-fraction/exp1/data/subject-4b.csv","legacy","#757575","low","7","Jazzy James","3.1.9","0","l","NA","space","space","l","l","NA","540","NA","28559","21485","29713","540","NA","2","legacy","1024","2","48000","-16","experiment","4","even","present","80869","80868","NA","NA","1021","80852","166186","166708","1052","29630","51132","166709","167251","NA","166164","Fraction component detection task","71","43335","71","yes","1280"
"100","100","609.486111111","609.486111111","#808080","no","legacy","legacy","legacy","0","uniform","1","undefined","undefined","undefined","1","a","0","0","0","71","0","0","71","71","0","0","0","71","71","0","71","Tue May  1 10:34:00 2018","#757575","low","3","The main experiment item","yes","","exp1.osexp","/Users/tom/github/sft-fraction/exp1","no","mono","no","24","no","white","no","yes","800","legacy","71","71","0","/Users/tom/github/sft-fraction/exp1/data/subject-4b.csv","legacy","#757575","low","3","Jazzy James","3.1.9","0","a","NA","space","space","l","a","NA","548","NA","28559","21485","29713","548","NA","2","legacy","1024","2","48000","-16","experiment","4","even","absent","80869","80868","NA","NA","1021","80852","167336","167854","1052","29630","51132","167854","168404","NA","167319","Fraction component detection task","72","43883","72","yes","1280"
"100","100","609.246575342","609.246575342","#808080","no","legacy","legacy","legacy","0","uniform","1","undefined","undefined","undefined","1","a","0","0","0","72","0","0","72","72","0","0","0","72","72","0","72","Tue May  1 10:34:00 2018","#757575","low","4","The main experiment item","yes","","exp1.osexp","/Users/tom/github/sft-fraction/exp1","no","mono","no","24","no","white","no","yes","800","legacy","72","72","0","/Users/tom/github/sft-fraction/exp1/data/subject-4b.csv","legacy","#757575","low","2","Jazzy James","3.1.9","0","a","NA","space","space","l","a","NA","592","NA","28559","21485","29713","592","NA","2","legacy","1024","2","48000","-16","experiment","4","even","absent","80869","80868","NA","NA","1021","80852","168486","169001","1052","29630","51132","169002","169596","NA","168470","Fraction component detection task","73","44475","73","yes","1280"
"100","100","608.148648649","608.148648649","#808080","no","legacy","legacy","legacy","0","uniform","1","undefined","undefined","undefined","1","a","0","0","0","73","0","0","73","73","0","0","0","73","73","0","73","Tue May  1 10:34:00 2018","#757575","low","2","The main experiment item","yes","","exp1.osexp","/Users/tom/github/sft-fraction/exp1","no","mono","no","24","no","white","no","yes","800","legacy","73","73","0","/Users/tom/github/sft-fraction/exp1/data/subject-4b.csv","legacy","#000000","high","2","Jazzy James","3.1.9","0","a","NA","space","space","l","a","NA","528","NA","28559","21485","29713","528","NA","2","legacy","1024","2","48000","-16","experiment","4","even","absent","80869","80868","NA","NA","1021","80852","169678","170194","1052","29630","51132","170194","170724","NA","169661","Fraction component detection task","74","45003","74","yes","1280"
"100","100","609.506666667","609.506666667","#808080","no","legacy","legacy","legacy","0","uniform","1","undefined","undefined","undefined","1","a","0","0","0","74","0","0","74","74","0","0","0","74","74","0","74","Tue May  1 10:34:00 2018","#757575","low","4","The main experiment item","yes","","exp1.osexp","/Users/tom/github/sft-fraction/exp1","no","mono","no","24","no","white","no","yes","800","legacy","74","74","0","/Users/tom/github/sft-fraction/exp1/data/subject-4b.csv","legacy","#757575","low","2","Jazzy James","3.1.9","0","a","NA","space","space","l","a","NA","710","NA","28559","21485","29713","710","NA","2","legacy","1024","2","48000","-16","experiment","4","even","absent","80869","80868","NA","NA","1021","80852","170812","171330","1052","29630","51132","171331","172044","NA","170795","Fraction component detection task","75","45713","75","yes","1280"
"100","100","609.394736842","609.394736842","#808080","no","legacy","legacy","legacy","0","uniform","1","undefined","undefined","undefined","1","l","0","0","0","75","0","0","75","75","0","0","0","75","75","0","75","Tue May  1 10:34:00 2018","#000000","high","3","The main experiment item","yes","","exp1.osexp","/Users/tom/github/sft-fraction/exp1","no","mono","no","24","no","white","no","yes","800","legacy","75","75","0","/Users/tom/github/sft-fraction/exp1/data/subject-4b.csv","legacy","#000000","high","7","Jazzy James","3.1.9","0","l","NA","space","space","l","l","NA","601","NA","28559","21485","29713","601","NA","2","legacy","1024","2","48000","-16","experiment","4","even","present","80869","80868","NA","NA","1021","80852","172127","172647","1052","29630","51132","172648","173251","NA","172108","Fraction component detection task","76","46314","76","yes","1280"
"100","100","609.506493506","609.506493506","#808080","no","legacy","legacy","legacy","0","uniform","1","undefined","undefined","undefined","1","a","0","0","0","76","0","0","76","76","0","0","0","76","76","0","76","Tue May  1 10:34:00 2018","#000000","high","3","The main experiment item","yes","","exp1.osexp","/Users/tom/github/sft-fraction/exp1","no","mono","no","24","no","white","no","yes","800","legacy","76","76","0","/Users/tom/github/sft-fraction/exp1/data/subject-4b.csv","legacy","#000000","high","2","Jazzy James","3.1.9","0","a","NA","space","space","l","a","NA","618","NA","28559","21485","29713","618","NA","2","legacy","1024","2","48000","-16","experiment","4","even","absent","80869","80868","NA","NA","1021","80852","173339","173855","1052","29630","51132","173856","174477","NA","173317","Fraction component detection task","77","46932","77","yes","1280"
"100","100","608.576923077","608.576923077","#808080","no","legacy","legacy","legacy","0","uniform","1","undefined","undefined","undefined","1","l","0","0","0","77","0","0","77","77","0","0","0","77","77","0","77","Tue May  1 10:34:00 2018","#000000","high","6","The main experiment item","yes","","exp1.osexp","/Users/tom/github/sft-fraction/exp1","no","mono","no","24","no","white","no","yes","800","legacy","77","77","0","/Users/tom/github/sft-fraction/exp1/data/subject-4b.csv","legacy","#000000","high","7","Jazzy James","3.1.9","0","l","NA","space","space","l","l","NA","537","NA","28559","21485","29713","537","NA","2","legacy","1024","2","48000","-16","experiment","4","even","present","80869","80868","NA","NA","1021","80852","174568","175089","1052","29630","51132","175089","175629","NA","174547","Fraction component detection task","78","47469","78","yes","1280"
"100","100","607.911392405","607.911392405","#808080","no","legacy","legacy","legacy","0","uniform","1","undefined","undefined","undefined","1","a","0","0","0","78","0","0","78","78","0","0","0","78","78","0","78","Tue May  1 10:34:00 2018","#757575","low","2","The main experiment item","yes","","exp1.osexp","/Users/tom/github/sft-fraction/exp1","no","mono","no","24","no","white","no","yes","800","legacy","78","78","0","/Users/tom/github/sft-fraction/exp1/data/subject-4b.csv","legacy","#000000","high","4","Jazzy James","3.1.9","0","a","NA","space","space","l","a","NA","556","NA","28559","21485","29713","556","NA","2","legacy","1024","2","48000","-16","experiment","4","even","absent","80869","80868","NA","NA","1021","80852","175720","176238","1052","29630","51132","176238","176797","NA","175700","Fraction component detection task","79","48025","79","yes","1280"
"100","100","606.7375","606.7375","#808080","no","legacy","legacy","legacy","0","uniform","1","undefined","undefined","undefined","1","a","0","0","0","79","0","0","79","79","0","0","0","79","79","0","79","Tue May  1 10:34:00 2018","#000000","high","4","The main experiment item","yes","","exp1.osexp","/Users/tom/github/sft-fraction/exp1","no","mono","no","24","no","white","no","yes","800","legacy","79","79","0","/Users/tom/github/sft-fraction/exp1/data/subject-4b.csv","legacy","#000000","high","2","Jazzy James","3.1.9","0","a","NA","space","space","l","a","NA","514","NA","28559","21485","29713","514","NA","2","legacy","1024","2","48000","-16","experiment","4","even","absent","80869","80868","NA","NA","1021","80852","176883","177400","1052","29630","51132","177400","177917","NA","176862","Fraction component detection task","80","48539","80","yes","1280"
"100","100","605.666666667","605.666666667","#808080","no","legacy","legacy","legacy","0","uniform","1","undefined","undefined","undefined","1","a","0","0","0","80","0","0","80","80","0","0","0","80","80","0","80","Tue May  1 10:34:00 2018","#000000","high","4","The main experiment item","yes","","exp1.osexp","/Users/tom/github/sft-fraction/exp1","no","mono","no","24","no","white","no","yes","800","legacy","80","80","0","/Users/tom/github/sft-fraction/exp1/data/subject-4b.csv","legacy","#000000","high","4","Jazzy James","3.1.9","0","a","NA","space","space","l","a","NA","520","NA","28559","21485","29713","520","NA","2","legacy","1024","2","48000","-16","experiment","4","even","absent","80869","80868","NA","NA","1021","80852","178003","178521","1052","29630","51132","178521","179044","NA","177983","Fraction component detection task","81","49059","81","yes","1280"
"100","100","604.292682927","604.292682927","#808080","no","legacy","legacy","legacy","0","uniform","1","undefined","undefined","undefined","1","a","0","0","0","81","0","0","81","81","0","0","0","81","81","0","81","Tue May  1 10:34:00 2018","#000000","high","3","The main experiment item","yes","","exp1.osexp","/Users/tom/github/sft-fraction/exp1","no","mono","no","24","no","white","no","yes","800","legacy","81","81","0","/Users/tom/github/sft-fraction/exp1/data/subject-4b.csv","legacy","#000000","high","2","Jazzy James","3.1.9","0","a","NA","space","space","l","a","NA","493","NA","28559","21485","29713","493","NA","2","legacy","1024","2","48000","-16","experiment","4","even","absent","80869","80868","NA","NA","1021","80852","179131","179651","1052","29630","51132","179652","180148","NA","179110","Fraction component detection task","82","49552","82","yes","1280"
"100","100","603.746987952","603.746987952","#808080","no","legacy","legacy","legacy","0","uniform","1","undefined","undefined","undefined","1","a","0","0","0","82","0","0","82","82","0","0","0","82","82","0","82","Tue May  1 10:34:00 2018","#000000","high","2","The main experiment item","yes","","exp1.osexp","/Users/tom/github/sft-fraction/exp1","no","mono","no","24","no","white","no","yes","800","legacy","82","82","0","/Users/tom/github/sft-fraction/exp1/data/subject-4b.csv","legacy","#757575","low","3","Jazzy James","3.1.9","0","a","NA","space","space","l","a","NA","559","NA","28559","21485","29713","559","NA","2","legacy","1024","2","48000","-16","experiment","4","even","absent","80869","80868","NA","NA","1021","80852","180228","180746","1052","29630","51132","180746","181308","NA","180212","Fraction component detection task","83","50111","83","yes","1280"
"100","100","603.083333333","603.083333333","#808080","no","legacy","legacy","legacy","0","uniform","1","undefined","undefined","undefined","1","l","0","0","0","83","0","0","83","83","0","0","0","83","83","0","83","Tue May  1 10:34:00 2018","#757575","low","6","The main experiment item","yes","","exp1.osexp","/Users/tom/github/sft-fraction/exp1","no","mono","no","24","no","white","no","yes","800","legacy","83","83","0","/Users/tom/github/sft-fraction/exp1/data/subject-4b.csv","legacy","#757575","low","2","Jazzy James","3.1.9","0","l","NA","space","space","l","l","NA","548","NA","28559","21485","29713","548","NA","2","legacy","1024","2","48000","-16","experiment","4","even","present","80869","80868","NA","NA","1021","80852","181393","181910","1052","29630","51132","181910","182461","NA","181377","Fraction component detection task","84","50659","84","yes","1280"
"100","100","603.094117647","603.094117647","#808080","no","legacy","legacy","legacy","0","uniform","1","undefined","undefined","undefined","1","l","0","0","0","84","0","0","84","84","0","0","0","84","84","0","84","Tue May  1 10:34:00 2018","#757575","low","8","The main experiment item","yes","","exp1.osexp","/Users/tom/github/sft-fraction/exp1","no","mono","no","24","no","white","no","yes","800","legacy","84","84","0","/Users/tom/github/sft-fraction/exp1/data/subject-4b.csv","legacy","#757575","low","6","Jazzy James","3.1.9","0","l","NA","space","space","l","l","NA","604","NA","28559","21485","29713","604","NA","2","legacy","1024","2","48000","-16","experiment","4","even","present","80869","80868","NA","NA","1021","80852","182545","183062","1052","29630","51132","183062","183669","NA","182529","Fraction component detection task","85","51263","85","yes","1280"
"100","100","602.802325581","602.802325581","#808080","no","legacy","legacy","legacy","0","uniform","1","undefined","undefined","undefined","1","l","0","0","0","85","0","0","85","85","0","0","0","85","85","0","85","Tue May  1 10:34:00 2018","#000000","high","6","The main experiment item","yes","","exp1.osexp","/Users/tom/github/sft-fraction/exp1","no","mono","no","24","no","white","no","yes","800","legacy","85","85","0","/Users/tom/github/sft-fraction/exp1/data/subject-4b.csv","legacy","#757575","low","3","Jazzy James","3.1.9","0","l","NA","space","space","l","l","NA","578","NA","28559","21485","29713","578","NA","2","legacy","1024","2","48000","-16","experiment","4","even","present","80869","80868","NA","NA","1021","80852","183755","184272","1052","29630","51132","184272","184853","NA","183734","Fraction component detection task","86","51841","86","yes","1280"
"100","100","603.022988506","603.022988506","#808080","no","legacy","legacy","legacy","0","uniform","1","undefined","undefined","undefined","1","l","0","0","0","86","0","0","86","86","0","0","0","86","86","0","86","Tue May  1 10:34:00 2018","#757575","low","8","The main experiment item","yes","","exp1.osexp","/Users/tom/github/sft-fraction/exp1","no","mono","no","24","no","white","no","yes","800","legacy","86","86","0","/Users/tom/github/sft-fraction/exp1/data/subject-4b.csv","legacy","#757575","low","4","Jazzy James","3.1.9","0","l","NA","space","space","l","l","NA","622","NA","28559","21485","29713","622","NA","2","legacy","1024","2","48000","-16","experiment","4","even","present","80869","80868","NA","NA","1021","80852","184932","185452","1052","29630","51132","185452","186076","NA","184917","Fraction component detection task","87","52463","87","yes","1280"
"100","100","602.522727273","602.522727273","#808080","no","legacy","legacy","legacy","0","uniform","1","undefined","undefined","undefined","1","l","0","0","0","87","0","0","87","87","0","0","0","87","87","0","87","Tue May  1 10:34:00 2018","#757575","low","8","The main experiment item","yes","","exp1.osexp","/Users/tom/github/sft-fraction/exp1","no","mono","no","24","no","white","no","yes","800","legacy","87","87","0","/Users/tom/github/sft-fraction/exp1/data/subject-4b.csv","legacy","#000000","high","3","Jazzy James","3.1.9","0","l","NA","space","space","l","l","NA","559","NA","28559","21485","29713","559","NA","2","legacy","1024","2","48000","-16","experiment","4","even","present","80869","80868","NA","NA","1021","80852","186162","186683","1052","29630","51132","186683","187244","NA","186147","Fraction component detection task","88","53022","88","yes","1280"
"100","100","603.078651685","603.078651685","#808080","no","legacy","legacy","legacy","0","uniform","1","undefined","undefined","undefined","1","a","0","0","0","88","0","0","88","88","0","0","0","88","88","0","88","Tue May  1 10:34:00 2018","#757575","low","3","The main experiment item","yes","","exp1.osexp","/Users/tom/github/sft-fraction/exp1","no","mono","no","24","no","white","no","yes","800","legacy","88","88","0","/Users/tom/github/sft-fraction/exp1/data/subject-4b.csv","legacy","#000000","high","4","Jazzy James","3.1.9","0","a","NA","space","space","l","a","NA","652","NA","28559","21485","29713","652","NA","2","legacy","1024","2","48000","-16","experiment","4","even","absent","80869","80868","NA","NA","1021","80852","187337","187855","1052","29630","51132","187855","188510","NA","187314","Fraction component detection task","89","53674","89","yes","1280"
"100","100","602.144444444","602.144444444","#808080","no","legacy","legacy","legacy","0","uniform","1","undefined","undefined","undefined","1","a","0","0","0","89","0","0","89","89","0","0","0","89","89","0","89","Tue May  1 10:34:00 2018","#000000","high","4","The main experiment item","yes","","exp1.osexp","/Users/tom/github/sft-fraction/exp1","no","mono","no","24","no","white","no","yes","800","legacy","89","89","0","/Users/tom/github/sft-fraction/exp1/data/subject-4b.csv","legacy","#000000","high","4","Jazzy James","3.1.9","0","a","NA","space","space","l","a","NA","519","NA","28559","21485","29713","519","NA","2","legacy","1024","2","48000","-16","experiment","4","even","absent","80869","80868","NA","NA","1021","80852","188599","189115","1052","29630","51132","189116","189637","NA","188583","Fraction component detection task","90","54193","90","yes","1280"
"100","100","601.769230769","601.769230769","#808080","no","legacy","legacy","legacy","0","uniform","1","undefined","undefined","undefined","1","a","0","0","0","90","0","0","90","90","0","0","0","90","90","0","90","Tue May  1 10:34:00 2018","#757575","low","2","The main experiment item","yes","","exp1.osexp","/Users/tom/github/sft-fraction/exp1","no","mono","no","24","no","white","no","yes","800","legacy","90","90","0","/Users/tom/github/sft-fraction/exp1/data/subject-4b.csv","legacy","#757575","low","2","Jazzy James","3.1.9","0","a","NA","space","space","l","a","NA","568","NA","28559","21485","29713","568","NA","2","legacy","1024","2","48000","-16","experiment","4","even","absent","80869","80868","NA","NA","1021","80852","189726","190243","1052","29630","51132","190243","190815","NA","189706","Fraction component detection task","91","54761","91","yes","1280"
"100","100","600.793478261","600.793478261","#808080","no","legacy","legacy","legacy","0","uniform","1","undefined","undefined","undefined","1","a","0","0","0","91","0","0","91","91","0","0","0","91","91","0","91","Tue May  1 10:34:00 2018","#757575","low","3","The main experiment item","yes","","exp1.osexp","/Users/tom/github/sft-fraction/exp1","no","mono","no","24","no","white","no","yes","800","legacy","91","91","0","/Users/tom/github/sft-fraction/exp1/data/subject-4b.csv","legacy","#000000","high","3","Jazzy James","3.1.9","0","a","NA","space","space","l","a","NA","512","NA","28559","21485","29713","512","NA","2","legacy","1024","2","48000","-16","experiment","4","even","absent","80869","80868","NA","NA","1021","80852","190897","191418","1052","29630","51132","191419","191934","NA","190882","Fraction component detection task","92","55273","92","yes","1280"
"100","100","599.795698925","599.795698925","#808080","no","legacy","legacy","legacy","0","uniform","1","undefined","undefined","undefined","1","a","0","0","0","92","0","0","92","92","0","0","0","92","92","0","92","Tue May  1 10:34:00 2018","#757575","low","3","The main experiment item","yes","","exp1.osexp","/Users/tom/github/sft-fraction/exp1","no","mono","no","24","no","white","no","yes","800","legacy","92","92","0","/Users/tom/github/sft-fraction/exp1/data/subject-4b.csv","legacy","#000000","high","3","Jazzy James","3.1.9","0","a","NA","space","space","l","a","NA","508","NA","28559","21485","29713","508","NA","2","legacy","1024","2","48000","-16","experiment","4","even","absent","80869","80868","NA","NA","1021","80852","192020","192542","1052","29630","51132","192542","193053","NA","192002","Fraction component detection task","93","55781","93","yes","1280"
"100","100","601.361702128","601.361702128","#808080","no","legacy","legacy","legacy","0","uniform","1","undefined","undefined","undefined","1","a","0","0","0","93","0","0","93","93","0","0","0","93","93","0","93","Tue May  1 10:34:00 2018","#000000","high","2","The main experiment item","yes","","exp1.osexp","/Users/tom/github/sft-fraction/exp1","no","mono","no","24","no","white","no","yes","800","legacy","93","93","0","/Users/tom/github/sft-fraction/exp1/data/subject-4b.csv","legacy","#000000","high","4","Jazzy James","3.1.9","0","a","NA","space","space","l","a","NA","747","NA","28559","21485","29713","747","NA","2","legacy","1024","2","48000","-16","experiment","4","even","absent","80869","80868","NA","NA","1021","80852","193146","193664","1052","29630","51132","193664","194414","NA","193123","Fraction component detection task","94","56528","94","yes","1280"
"100","100","600.578947368","600.578947368","#808080","no","legacy","legacy","legacy","0","uniform","1","undefined","undefined","undefined","1","l","0","0","0","94","0","0","94","94","0","0","0","94","94","0","94","Tue May  1 10:34:00 2018","#000000","high","7","The main experiment item","yes","","exp1.osexp","/Users/tom/github/sft-fraction/exp1","no","mono","no","24","no","white","no","yes","800","legacy","94","94","0","/Users/tom/github/sft-fraction/exp1/data/subject-4b.csv","legacy","#000000","high","7","Jazzy James","3.1.9","0","l","NA","space","space","l","l","NA","527","NA","28559","21485","29713","527","NA","2","legacy","1024","2","48000","-16","experiment","4","even","present","80869","80868","NA","NA","1021","80852","194496","195012","1052","29630","51132","195012","195542","NA","194479","Fraction component detection task","95","57055","95","yes","1280"
"100","100","599.895833333","599.895833333","#808080","no","legacy","legacy","legacy","0","uniform","1","undefined","undefined","undefined","1","a","0","0","0","95","0","0","95","95","0","0","0","95","95","0","95","Tue May  1 10:34:00 2018","#757575","low","4","The main experiment item","yes","","exp1.osexp","/Users/tom/github/sft-fraction/exp1","no","mono","no","24","no","white","no","yes","800","legacy","95","95","0","/Users/tom/github/sft-fraction/exp1/data/subject-4b.csv","legacy","#000000","high","2","Jazzy James","3.1.9","0","a","NA","space","space","l","a","NA","535","NA","28559","21485","29713","535","NA","2","legacy","1024","2","48000","-16","experiment","4","even","absent","80869","80868","NA","NA","1021","80852","195630","196148","1052","29630","51132","196148","196686","NA","195607","Fraction component detection task","96","57590","96","yes","1280"
"100","100","599.453608247","599.453608247","#808080","no","legacy","legacy","legacy","0","uniform","1","undefined","undefined","undefined","1","l","0","0","0","96","0","0","96","96","0","0","0","96","96","0","96","Tue May  1 10:34:00 2018","#757575","low","2","The main experiment item","yes","","exp1.osexp","/Users/tom/github/sft-fraction/exp1","no","mono","no","24","no","white","no","yes","800","legacy","96","96","0","/Users/tom/github/sft-fraction/exp1/data/subject-4b.csv","legacy","#000000","high","7","Jazzy James","3.1.9","0","l","NA","space","space","l","l","NA","557","NA","28559","21485","29713","557","NA","2","legacy","1024","2","48000","-16","experiment","4","even","present","80869","80868","NA","NA","1021","80852","196767","197286","1052","29630","51132","197286","197846","NA","196751","Fraction component detection task","97","58147","97","yes","1280"
"100","100","598.469387755","598.469387755","#808080","no","legacy","legacy","legacy","0","uniform","1","undefined","undefined","undefined","1","a","0","0","0","97","0","0","97","97","0","0","0","97","97","0","97","Tue May  1 10:34:00 2018","#000000","high","2","The main experiment item","yes","","exp1.osexp","/Users/tom/github/sft-fraction/exp1","no","mono","no","24","no","white","no","yes","800","legacy","97","97","0","/Users/tom/github/sft-fraction/exp1/data/subject-4b.csv","legacy","#000000","high","3","Jazzy James","3.1.9","0","a","NA","space","space","l","a","NA","503","NA","28559","21485","29713","503","NA","2","legacy","1024","2","48000","-16","experiment","4","even","absent","80869","80868","NA","NA","1021","80852","197934","198451","1052","29630","51132","198452","198959","NA","197912","Fraction component detection task","98","58650","98","yes","1280"
"100","100","599.070707071","599.070707071","#808080","no","legacy","legacy","legacy","0","uniform","1","undefined","undefined","undefined","1","l","0","0","0","98","0","0","98","98","0","0","0","98","98","0","98","Tue May  1 10:34:00 2018","#000000","high","8","The main experiment item","yes","","exp1.osexp","/Users/tom/github/sft-fraction/exp1","no","mono","no","24","no","white","no","yes","800","legacy","98","98","0","/Users/tom/github/sft-fraction/exp1/data/subject-4b.csv","legacy","#757575","low","6","Jazzy James","3.1.9","0","l","NA","space","space","l","l","NA","658","NA","28559","21485","29713","658","NA","2","legacy","1024","2","48000","-16","experiment","4","even","present","80869","80868","NA","NA","1021","80852","199040","199559","1052","29630","51132","199560","200221","NA","199024","Fraction component detection task","99","59308","99","yes","1280"
"100","100","599.43","599.43","#808080","no","legacy","legacy","legacy","0","uniform","1","undefined","undefined","undefined","1","l","0","0","0","99","0","0","99","99","0","0","0","99","99","0","99","Tue May  1 10:34:00 2018","#000000","high","3","The main experiment item","yes","","exp1.osexp","/Users/tom/github/sft-fraction/exp1","no","mono","no","24","no","white","no","yes","800","legacy","99","99","0","/Users/tom/github/sft-fraction/exp1/data/subject-4b.csv","legacy","#000000","high","6","Jazzy James","3.1.9","0","l","NA","space","space","l","l","NA","635","NA","28559","21485","29713","635","NA","2","legacy","1024","2","48000","-16","experiment","4","even","present","80869","80868","NA","NA","1021","80852","200303","200824","1052","29630","51132","200824","201462","NA","200287","Fraction component detection task","100","59943","100","yes","1280"
"100","100","599.01980198","599.01980198","#808080","no","legacy","legacy","legacy","0","uniform","1","undefined","undefined","undefined","1","l","0","0","0","100","0","0","100","100","0","0","0","100","100","0","100","Tue May  1 10:34:00 2018","#000000","high","7","The main experiment item","yes","","exp1.osexp","/Users/tom/github/sft-fraction/exp1","no","mono","no","24","no","white","no","yes","800","legacy","100","100","0","/Users/tom/github/sft-fraction/exp1/data/subject-4b.csv","legacy","#000000","high","4","Jazzy James","3.1.9","0","l","NA","space","space","l","l","NA","558","NA","28559","21485","29713","558","NA","2","legacy","1024","2","48000","-16","experiment","4","even","present","80869","80868","NA","NA","1021","80852","201545","202061","1052","29630","51132","202061","202622","NA","201529","Fraction component detection task","101","60501","101","yes","1280"
"100","100","599.931372549","599.931372549","#808080","no","legacy","legacy","legacy","0","uniform","1","undefined","undefined","undefined","1","l","0","0","0","101","0","0","101","101","0","0","0","101","101","0","101","Tue May  1 10:34:00 2018","#000000","high","2","The main experiment item","yes","","exp1.osexp","/Users/tom/github/sft-fraction/exp1","no","mono","no","24","no","white","no","yes","800","legacy","101","101","0","/Users/tom/github/sft-fraction/exp1/data/subject-4b.csv","legacy","#757575","low","6","Jazzy James","3.1.9","0","l","NA","space","space","l","l","NA","692","NA","28559","21485","29713","692","NA","2","legacy","1024","2","48000","-16","experiment","4","even","present","80869","80868","NA","NA","1021","80852","202704","203223","1052","29630","51132","203224","203918","NA","202688","Fraction component detection task","102","61193","102","yes","1280"
"100","100","599.59223301","599.59223301","#808080","no","legacy","legacy","legacy","0","uniform","1","undefined","undefined","undefined","1","a","0","0","0","102","0","0","102","102","0","0","0","102","102","0","102","Tue May  1 10:34:00 2018","#757575","low","4","The main experiment item","yes","","exp1.osexp","/Users/tom/github/sft-fraction/exp1","no","mono","no","24","no","white","no","yes","800","legacy","102","102","0","/Users/tom/github/sft-fraction/exp1/data/subject-4b.csv","legacy","#000000","high","4","Jazzy James","3.1.9","0","a","NA","space","space","l","a","NA","565","NA","28559","21485","29713","565","NA","2","legacy","1024","2","48000","-16","experiment","4","even","absent","80869","80868","NA","NA","1021","80852","204002","204518","1052","29630","51132","204518","205085","NA","203982","Fraction component detection task","103","61758","103","yes","1280"
"100","100","599.625","599.625","#808080","no","legacy","legacy","legacy","0","uniform","1","undefined","undefined","undefined","1","l","0","0","0","103","0","0","103","103","0","0","0","103","103","0","103","Tue May  1 10:34:00 2018","#000000","high","7","The main experiment item","yes","","exp1.osexp","/Users/tom/github/sft-fraction/exp1","no","mono","no","24","no","white","no","yes","800","legacy","103","103","0","/Users/tom/github/sft-fraction/exp1/data/subject-4b.csv","legacy","#757575","low","6","Jazzy James","3.1.9","0","l","NA","space","space","l","l","NA","603","NA","28559","21485","29713","603","NA","2","legacy","1024","2","48000","-16","experiment","4","even","present","80869","80868","NA","NA","1021","80852","205171","205688","1052","29630","51132","205688","206294","NA","205151","Fraction component detection task","104","62361","104","yes","1280"
"100","100","600.914285714","600.914285714","#808080","no","legacy","legacy","legacy","0","uniform","1","undefined","undefined","undefined","1","l","0","0","0","104","0","0","104","104","0","0","0","104","104","0","104","Tue May  1 10:34:00 2018","#000000","high","7","The main experiment item","yes","","exp1.osexp","/Users/tom/github/sft-fraction/exp1","no","mono","no","24","no","white","no","yes","800","legacy","104","104","0","/Users/tom/github/sft-fraction/exp1/data/subject-4b.csv","legacy","#757575","low","4","Jazzy James","3.1.9","0","l","NA","space","space","l","l","NA","735","NA","28559","21485","29713","735","NA","2","legacy","1024","2","48000","-16","experiment","4","even","present","80869","80868","NA","NA","1021","80852","206381","206900","1052","29630","51132","206901","207640","NA","206360","Fraction component detection task","105","63096","105","yes","1280"
"100","100","600.471698113","600.471698113","#808080","no","legacy","legacy","legacy","0","uniform","1","undefined","undefined","undefined","1","a","0","0","0","105","0","0","105","105","0","0","0","105","105","0","105","Tue May  1 10:34:00 2018","#757575","low","3","The main experiment item","yes","","exp1.osexp","/Users/tom/github/sft-fraction/exp1","no","mono","no","24","no","white","no","yes","800","legacy","105","105","0","/Users/tom/github/sft-fraction/exp1/data/subject-4b.csv","legacy","#757575","low","4","Jazzy James","3.1.9","0","a","NA","space","space","l","a","NA","554","NA","28559","21485","29713","554","NA","2","legacy","1024","2","48000","-16","experiment","4","even","absent","80869","80868","NA","NA","1021","80852","207725","208242","1052","29630","51132","208242","208799","NA","207704","Fraction component detection task","106","63650","106","yes","1280"
"100","100","599.775700935","599.775700935","#808080","no","legacy","legacy","legacy","0","uniform","1","undefined","undefined","undefined","1","l","0","0","0","106","0","0","106","106","0","0","0","106","106","0","106","Tue May  1 10:34:00 2018","#000000","high","4","The main experiment item","yes","","exp1.osexp","/Users/tom/github/sft-fraction/exp1","no","mono","no","24","no","white","no","yes","800","legacy","106","106","0","/Users/tom/github/sft-fraction/exp1/data/subject-4b.csv","legacy","#757575","low","7","Jazzy James","3.1.9","0","l","NA","space","space","l","l","NA","526","NA","28559","21485","29713","526","NA","2","legacy","1024","2","48000","-16","experiment","4","even","present","80869","80868","NA","NA","1021","80852","208889","209405","1052","29630","51132","209406","209935","NA","208869","Fraction component detection task","107","64176","107","yes","1280"
"100","100","600.981481481","600.981481481","#808080","no","legacy","legacy","legacy","0","uniform","1","undefined","undefined","undefined","1","a","0","0","0","107","0","0","107","107","0","0","0","107","107","0","107","Tue May  1 10:34:00 2018","#000000","high","4","The main experiment item","yes","","exp1.osexp","/Users/tom/github/sft-fraction/exp1","no","mono","no","24","no","white","no","yes","800","legacy","107","107","0","/Users/tom/github/sft-fraction/exp1/data/subject-4b.csv","legacy","#757575","low","3","Jazzy James","3.1.9","0","a","NA","space","space","l","a","NA","730","NA","28559","21485","29713","730","NA","2","legacy","1024","2","48000","-16","experiment","4","even","absent","80869","80868","NA","NA","1021","80852","210024","210545","1052","29630","51132","210545","211278","NA","210004","Fraction component detection task","108","64906","108","yes","1280"
"100","100","601.027522936","601.027522936","#808080","no","legacy","legacy","legacy","0","uniform","1","undefined","undefined","undefined","1","l","0","0","0","108","0","0","108","108","0","0","0","108","108","0","108","Tue May  1 10:34:00 2018","#757575","low","7","The main experiment item","yes","","exp1.osexp","/Users/tom/github/sft-fraction/exp1","no","mono","no","24","no","white","no","yes","800","legacy","108","108","0","/Users/tom/github/sft-fraction/exp1/data/subject-4b.csv","legacy","#757575","low","2","Jazzy James","3.1.9","0","l","NA","space","space","l","l","NA","606","NA","28559","21485","29713","606","NA","2","legacy","1024","2","48000","-16","experiment","4","even","present","80869","80868","NA","NA","1021","80852","211361","211878","1052","29630","51132","211878","212487","NA","211345","Fraction component detection task","109","65512","109","yes","1280"
"100","100","601.509090909","601.509090909","#808080","no","legacy","legacy","legacy","0","uniform","1","undefined","undefined","undefined","1","a","0","0","0","109","0","0","109","109","0","0","0","109","109","0","109","Tue May  1 10:34:00 2018","#757575","low","4","The main experiment item","yes","","exp1.osexp","/Users/tom/github/sft-fraction/exp1","no","mono","no","24","no","white","no","yes","800","legacy","109","109","0","/Users/tom/github/sft-fraction/exp1/data/subject-4b.csv","legacy","#757575","low","3","Jazzy James","3.1.9","0","a","NA","space","space","l","a","NA","654","NA","28559","21485","29713","654","NA","2","legacy","1024","2","48000","-16","experiment","4","even","absent","80869","80868","NA","NA","1021","80852","212574","213094","1052","29630","51132","213094","213751","NA","212556","Fraction component detection task","110","66166","110","yes","1280"
"100","100","602.153153153","602.153153153","#808080","no","legacy","legacy","legacy","0","uniform","1","undefined","undefined","undefined","1","l","0","0","0","110","0","0","110","110","0","0","0","110","110","0","110","Tue May  1 10:34:00 2018","#757575","low","8","The main experiment item","yes","","exp1.osexp","/Users/tom/github/sft-fraction/exp1","no","mono","no","24","no","white","no","yes","800","legacy","110","110","0","/Users/tom/github/sft-fraction/exp1/data/subject-4b.csv","legacy","#000000","high","2","Jazzy James","3.1.9","0","l","NA","space","space","l","l","NA","673","NA","28559","21485","29713","673","NA","2","legacy","1024","2","48000","-16","experiment","4","even","present","80869","80868","NA","NA","1021","80852","213840","214362","1052","29630","51132","214362","215038","NA","213821","Fraction component detection task","111","66839","111","yes","1280"
"100","100","601.616071429","601.616071429","#808080","no","legacy","legacy","legacy","0","uniform","1","undefined","undefined","undefined","1","a","0","0","0","111","0","0","111","111","0","0","0","111","111","0","111","Tue May  1 10:34:00 2018","#000000","high","2","The main experiment item","yes","","exp1.osexp","/Users/tom/github/sft-fraction/exp1","no","mono","no","24","no","white","no","yes","800","legacy","111","111","0","/Users/tom/github/sft-fraction/exp1/data/subject-4b.csv","legacy","#000000","high","3","Jazzy James","3.1.9","0","a","NA","space","space","l","a","NA","542","NA","28559","21485","29713","542","NA","2","legacy","1024","2","48000","-16","experiment","4","even","absent","80869","80868","NA","NA","1021","80852","215126","215645","1052","29630","51132","215645","216190","NA","215105","Fraction component detection task","112","67381","112","yes","1280"
