"acc","accuracy","average_response_time","avg_rt","background","bidi","canvas_backend","clock_backend","color_backend","compensation","coordinates","correct","correct_instructions1","correct_instructions2","correct_instructions3","correct_keyboard_response","correct_response","count_block_loop","count_block_sequence","count_end_of_experiment","count_error","count_experiment","count_experimental_loop","count_fixation_dot","count_fraction","count_instructions1","count_instructions2","count_instructions3","count_keyboard_response","count_logger","count_rest","count_trial_sequence","datetime","denomColor","denomSalience","denominator","description","disable_garbage_collection","empty_column","experiment_file","experiment_path","font_bold","font_family","font_italic","font_size","font_underline","foreground","form_clicks","fullscreen","height","keyboard_backend","live_row","live_row_block_loop","live_row_experimental_loop","logfile","mouse_backend","numColor","numSalience","numerator","opensesame_codename","opensesame_version","repeat_cycle","response","response_end_of_experiment","response_instructions1","response_instructions2","response_instructions3","response_keyboard_response","response_rest","response_time","response_time_end_of_experiment","response_time_instructions1","response_time_instructions2","response_time_instructions3","response_time_keyboard_response","response_time_rest","round_decimals","sampler_backend","sound_buf_size","sound_channels","sound_freq","sound_sample_size","start","subject_nr","subject_parity","target","time_block_loop","time_block_sequence","time_end_of_experiment","time_error","time_experiment","time_experimental_loop","time_fixation_dot","time_fraction","time_instructions1","time_instructions2","time_instructions3","time_keyboard_response","time_logger","time_rest","time_trial_sequence","title","total_correct","total_response_time","total_responses","uniform_coordinates","width"
"100","100","961","961","#808080","no","legacy","legacy","legacy","0","uniform","1","undefined","undefined","undefined","1","l","0","0","0","0","0","0","0","0","0","0","0","0","0","0","0","Tue Apr 24 08:58:50 2018","#000000","high","8","The main experiment item","yes","","experiment.osexp","/Users/tom/github/sft-fraction/procedure","no","mono","no","24","no","white","no","yes","800","legacy","0","0","0","/Users/tom/github/sft-fraction/results/subject-1.csv","legacy","#000000","high","8","Jazzy James","3.1.9","0","l","NA","space","space","space","l","NA","961","NA","61562","10311","19327","961","NA","2","legacy","1024","2","48000","-16","experiment","1","odd","present","1634152","1634152","NA","NA","1542863","1634135","1634199","1634716","1542898","1604477","1614805","1634716","1635684","NA","1634183","Fraction component detection task","1","961","1","yes","1280"
"100","100","977.5","977.5","#808080","no","legacy","legacy","legacy","0","uniform","1","undefined","undefined","undefined","1","a","0","0","0","1","0","0","1","1","0","0","0","1","1","0","1","Tue Apr 24 08:58:50 2018","#000000","high","4","The main experiment item","yes","","experiment.osexp","/Users/tom/github/sft-fraction/procedure","no","mono","no","24","no","white","no","yes","800","legacy","1","1","0","/Users/tom/github/sft-fraction/results/subject-1.csv","legacy","#757575","low","4","Jazzy James","3.1.9","0","a","NA","space","space","space","a","NA","994","NA","61562","10311","19327","994","NA","2","legacy","1024","2","48000","-16","experiment","1","odd","absent","1634152","1634152","NA","NA","1542863","1634135","1635779","1636298","1542898","1604477","1614805","1636298","1637294","NA","1635760","Fraction component detection task","2","1955","2","yes","1280"
"66.6666666667","66.6666666667","826.333333333","826.333333333","#808080","no","legacy","legacy","legacy","0","uniform","0","undefined","undefined","undefined","0","l","0","0","0","2","0","0","2","2","0","0","0","2","2","0","2","Tue Apr 24 08:58:50 2018","#000000","high","4","The main experiment item","yes","","experiment.osexp","/Users/tom/github/sft-fraction/procedure","no","mono","no","24","no","white","no","yes","800","legacy","2","2","0","/Users/tom/github/sft-fraction/results/subject-1.csv","legacy","#000000","high","6","Jazzy James","3.1.9","0","a","NA","space","space","space","a","NA","524","NA","61562","10311","19327","524","NA","2","legacy","1024","2","48000","-16","experiment","1","odd","present","1634152","1634152","NA","NA","1542863","1634135","1637381","1637896","1542898","1604477","1614805","1637897","1638423","NA","1637363","Fraction component detection task","2","2479","3","yes","1280"
"50","50","1094","1094","#808080","no","legacy","legacy","legacy","0","uniform","0","undefined","undefined","undefined","0","l","0","0","0","3","0","0","3","3","0","0","0","3","3","0","3","Tue Apr 24 08:58:50 2018","#000000","high","3","The main experiment item","yes","","experiment.osexp","/Users/tom/github/sft-fraction/procedure","no","mono","no","24","no","white","no","yes","800","legacy","3","3","0","/Users/tom/github/sft-fraction/results/subject-1.csv","legacy","#000000","high","7","Jazzy James","3.1.9","0","a","NA","space","space","space","a","NA","1897","NA","61562","10311","19327","1897","NA","2","legacy","1024","2","48000","-16","experiment","1","odd","present","1634152","1634152","NA","1638441","1542863","1634135","1639521","1640037","1542898","1604477","1614805","1640037","1641935","NA","1639502","Fraction component detection task","2","4376","4","yes","1280"
"60","60","1486.2","1486.2","#808080","no","legacy","legacy","legacy","0","uniform","1","undefined","undefined","undefined","1","l","0","0","0","4","0","0","4","4","0","0","0","4","4","0","4","Tue Apr 24 08:58:50 2018","#000000","high","6","The main experiment item","yes","","experiment.osexp","/Users/tom/github/sft-fraction/procedure","no","mono","no","24","no","white","no","yes","800","legacy","4","4","0","/Users/tom/github/sft-fraction/results/subject-1.csv","legacy","#000000","high","8","Jazzy James","3.1.9","0","l","NA","space","space","space","l","NA","3055","NA","61562","10311","19327","3055","NA","2","legacy","1024","2","48000","-16","experiment","1","odd","present","1634152","1634152","NA","1641953","1542863","1634135","1643035","1643551","1542898","1604477","1614805","1643551","1646608","NA","1643017","Fraction component detection task","3","7431","5","yes","1280"
"66.6666666667","66.6666666667","1492.83333333","1492.83333333","#808080","no","legacy","legacy","legacy","0","uniform","1","undefined","undefined","undefined","1","l","0","0","0","5","0","0","5","5","0","0","0","5","5","0","5","Tue Apr 24 08:58:50 2018","#757575","low","4","The main experiment item","yes","","experiment.osexp","/Users/tom/github/sft-fraction/procedure","no","mono","no","24","no","white","no","yes","800","legacy","5","5","0","/Users/tom/github/sft-fraction/results/subject-1.csv","legacy","#757575","low","7","Jazzy James","3.1.9","0","l","NA","space","space","space","l","NA","1526","NA","61562","10311","19327","1526","NA","2","legacy","1024","2","48000","-16","experiment","1","odd","present","1634152","1634152","NA","1641953","1542863","1634135","1646693","1647208","1542898","1604477","1614805","1647208","1648736","NA","1646672","Fraction component detection task","4","8957","6","yes","1280"
"71.4285714286","71.4285714286","1355.42857143","1355.42857143","#808080","no","legacy","legacy","legacy","0","uniform","1","undefined","undefined","undefined","1","a","0","0","0","6","0","0","6","6","0","0","0","6","6","0","6","Tue Apr 24 08:58:50 2018","#757575","low","3","The main experiment item","yes","","experiment.osexp","/Users/tom/github/sft-fraction/procedure","no","mono","no","24","no","white","no","yes","800","legacy","6","6","0","/Users/tom/github/sft-fraction/results/subject-1.csv","legacy","#000000","high","3","Jazzy James","3.1.9","0","a","NA","space","space","space","a","NA","531","NA","61562","10311","19327","531","NA","2","legacy","1024","2","48000","-16","experiment","1","odd","absent","1634152","1634152","NA","1641953","1542863","1634135","1648824","1649339","1542898","1604477","1614805","1649339","1649872","NA","1648808","Fraction component detection task","5","9488","7","yes","1280"
"75","75","1253","1253","#808080","no","legacy","legacy","legacy","0","uniform","1","undefined","undefined","undefined","1","l","0","0","0","7","0","0","7","7","0","0","0","7","7","0","7","Tue Apr 24 08:58:50 2018","#757575","low","7","The main experiment item","yes","","experiment.osexp","/Users/tom/github/sft-fraction/procedure","no","mono","no","24","no","white","no","yes","800","legacy","7","7","0","/Users/tom/github/sft-fraction/results/subject-1.csv","legacy","#000000","high","7","Jazzy James","3.1.9","0","l","NA","space","space","space","l","NA","536","NA","61562","10311","19327","536","NA","2","legacy","1024","2","48000","-16","experiment","1","odd","present","1634152","1634152","NA","1641953","1542863","1634135","1649953","1650469","1542898","1604477","1614805","1650469","1651007","NA","1649939","Fraction component detection task","6","10024","8","yes","1280"
"77.7777777778","77.7777777778","1175","1175","#808080","no","legacy","legacy","legacy","0","uniform","1","undefined","undefined","undefined","1","a","0","0","0","8","0","0","8","8","0","0","0","8","8","0","8","Tue Apr 24 08:58:50 2018","#757575","low","4","The main experiment item","yes","","experiment.osexp","/Users/tom/github/sft-fraction/procedure","no","mono","no","24","no","white","no","yes","800","legacy","8","8","0","/Users/tom/github/sft-fraction/results/subject-1.csv","legacy","#757575","low","4","Jazzy James","3.1.9","0","a","NA","space","space","space","a","NA","551","NA","61562","10311","19327","551","NA","2","legacy","1024","2","48000","-16","experiment","1","odd","absent","1634152","1634152","NA","1641953","1542863","1634135","1651088","1651606","1542898","1604477","1614805","1651606","1652159","NA","1651074","Fraction component detection task","7","10575","9","yes","1280"
"80","80","1111.9","1111.9","#808080","no","legacy","legacy","legacy","0","uniform","1","undefined","undefined","undefined","1","l","0","0","0","9","0","0","9","9","0","0","0","9","9","0","9","Tue Apr 24 08:58:50 2018","#000000","high","8","The main experiment item","yes","","experiment.osexp","/Users/tom/github/sft-fraction/procedure","no","mono","no","24","no","white","no","yes","800","legacy","9","9","0","/Users/tom/github/sft-fraction/results/subject-1.csv","legacy","#000000","high","6","Jazzy James","3.1.9","0","l","NA","space","space","space","l","NA","544","NA","61562","10311","19327","544","NA","2","legacy","1024","2","48000","-16","experiment","1","odd","present","1634152","1634152","NA","1641953","1542863","1634135","1652249","1652765","1542898","1604477","1614805","1652765","1653311","NA","1652230","Fraction component detection task","8","11119","10","yes","1280"
"81.8181818182","81.8181818182","1064.81818182","1064.81818182","#808080","no","legacy","legacy","legacy","0","uniform","1","undefined","undefined","undefined","1","l","0","0","0","10","0","0","10","10","0","0","0","10","10","0","10","Tue Apr 24 08:58:50 2018","#000000","high","3","The main experiment item","yes","","experiment.osexp","/Users/tom/github/sft-fraction/procedure","no","mono","no","24","no","white","no","yes","800","legacy","10","10","0","/Users/tom/github/sft-fraction/results/subject-1.csv","legacy","#757575","low","7","Jazzy James","3.1.9","0","l","NA","space","space","space","l","NA","594","NA","61562","10311","19327","594","NA","2","legacy","1024","2","48000","-16","experiment","1","odd","present","1634152","1634152","NA","1641953","1542863","1634135","1653393","1653908","1542898","1604477","1614805","1653908","1654504","NA","1653379","Fraction component detection task","9","11713","11","yes","1280"
"83.3333333333","83.3333333333","1054.5","1054.5","#808080","no","legacy","legacy","legacy","0","uniform","1","undefined","undefined","undefined","1","l","0","0","0","11","0","0","11","11","0","0","0","11","11","0","11","Tue Apr 24 08:58:50 2018","#000000","high","6","The main experiment item","yes","","experiment.osexp","/Users/tom/github/sft-fraction/procedure","no","mono","no","24","no","white","no","yes","800","legacy","11","11","0","/Users/tom/github/sft-fraction/results/subject-1.csv","legacy","#000000","high","7","Jazzy James","3.1.9","0","l","NA","space","space","space","l","NA","941","NA","61562","10311","19327","941","NA","2","legacy","1024","2","48000","-16","experiment","1","odd","present","1634152","1634152","NA","1641953","1542863","1634135","1654584","1655103","1542898","1604477","1614805","1655104","1656047","NA","1654570","Fraction component detection task","10","12654","12","yes","1280"
"76.9230769231","76.9230769231","1036.07692308","1036.07692308","#808080","no","legacy","legacy","legacy","0","uniform","0","undefined","undefined","undefined","0","l","0","0","0","12","0","0","12","12","0","0","0","12","12","0","12","Tue Apr 24 08:58:50 2018","#000000","high","2","The main experiment item","yes","","experiment.osexp","/Users/tom/github/sft-fraction/procedure","no","mono","no","24","no","white","no","yes","800","legacy","12","12","0","/Users/tom/github/sft-fraction/results/subject-1.csv","legacy","#000000","high","6","Jazzy James","3.1.9","0","a","NA","space","space","space","a","NA","815","NA","61562","10311","19327","815","NA","2","legacy","1024","2","48000","-16","experiment","1","odd","present","1634152","1634152","NA","1641953","1542863","1634135","1656128","1656647","1542898","1604477","1614805","1656648","1657464","NA","1656113","Fraction component detection task","10","13469","13","yes","1280"
"78.5714285714","78.5714285714","1051.07142857","1051.07142857","#808080","no","legacy","legacy","legacy","0","uniform","1","undefined","undefined","undefined","1","a","0","0","0","13","0","0","13","13","0","0","0","13","13","0","13","Tue Apr 24 08:58:50 2018","#757575","low","3","The main experiment item","yes","","experiment.osexp","/Users/tom/github/sft-fraction/procedure","no","mono","no","24","no","white","no","yes","800","legacy","13","13","0","/Users/tom/github/sft-fraction/results/subject-1.csv","legacy","#000000","high","3","Jazzy James","3.1.9","0","a","NA","space","space","space","a","NA","1246","NA","61562","10311","19327","1246","NA","2","legacy","1024","2","48000","-16","experiment","1","odd","absent","1634152","1634152","NA","1657482","1542863","1634135","1658564","1659080","1542898","1604477","1614805","1659080","1660327","NA","1658548","Fraction component detection task","11","14715","14","yes","1280"
"80","80","1017.93333333","1017.93333333","#808080","no","legacy","legacy","legacy","0","uniform","1","undefined","undefined","undefined","1","a","0","0","0","14","0","0","14","14","0","0","0","14","14","0","14","Tue Apr 24 08:58:50 2018","#757575","low","3","The main experiment item","yes","","experiment.osexp","/Users/tom/github/sft-fraction/procedure","no","mono","no","24","no","white","no","yes","800","legacy","14","14","0","/Users/tom/github/sft-fraction/results/subject-1.csv","legacy","#757575","low","3","Jazzy James","3.1.9","0","a","NA","space","space","space","a","NA","554","NA","61562","10311","19327","554","NA","2","legacy","1024","2","48000","-16","experiment","1","odd","absent","1634152","1634152","NA","1657482","1542863","1634135","1660409","1660925","1542898","1604477","1614805","1660925","1661480","NA","1660394","Fraction component detection task","12","15269","15","yes","1280"
"81.25","81.25","988.25","988.25","#808080","no","legacy","legacy","legacy","0","uniform","1","undefined","undefined","undefined","1","a","0","0","0","15","0","0","15","15","0","0","0","15","15","0","15","Tue Apr 24 08:58:50 2018","#757575","low","4","The main experiment item","yes","","experiment.osexp","/Users/tom/github/sft-fraction/procedure","no","mono","no","24","no","white","no","yes","800","legacy","15","15","0","/Users/tom/github/sft-fraction/results/subject-1.csv","legacy","#757575","low","4","Jazzy James","3.1.9","0","a","NA","space","space","space","a","NA","543","NA","61562","10311","19327","543","NA","2","legacy","1024","2","48000","-16","experiment","1","odd","absent","1634152","1634152","NA","1657482","1542863","1634135","1661561","1662080","1542898","1604477","1614805","1662080","1662624","NA","1661547","Fraction component detection task","13","15812","16","yes","1280"
"76.4705882353","76.4705882353","994.176470588","994.176470588","#808080","no","legacy","legacy","legacy","0","uniform","0","undefined","undefined","undefined","0","l","0","0","0","16","0","0","16","16","0","0","0","16","16","0","16","Tue Apr 24 08:58:50 2018","#000000","high","7","The main experiment item","yes","","experiment.osexp","/Users/tom/github/sft-fraction/procedure","no","mono","no","24","no","white","no","yes","800","legacy","16","16","0","/Users/tom/github/sft-fraction/results/subject-1.csv","legacy","#000000","high","4","Jazzy James","3.1.9","0","a","NA","space","space","space","a","NA","1089","NA","61562","10311","19327","1089","NA","2","legacy","1024","2","48000","-16","experiment","1","odd","present","1634152","1634152","NA","1657482","1542863","1634135","1662706","1663221","1542898","1604477","1614805","1663221","1664312","NA","1662691","Fraction component detection task","13","16901","17","yes","1280"
"77.7777777778","77.7777777778","999.333333333","999.333333333","#808080","no","legacy","legacy","legacy","0","uniform","1","undefined","undefined","undefined","1","a","0","0","0","17","0","0","17","17","0","0","0","17","17","0","17","Tue Apr 24 08:58:50 2018","#757575","low","2","The main experiment item","yes","","experiment.osexp","/Users/tom/github/sft-fraction/procedure","no","mono","no","24","no","white","no","yes","800","legacy","17","17","0","/Users/tom/github/sft-fraction/results/subject-1.csv","legacy","#757575","low","3","Jazzy James","3.1.9","0","a","NA","space","space","space","a","NA","1087","NA","61562","10311","19327","1087","NA","2","legacy","1024","2","48000","-16","experiment","1","odd","absent","1634152","1634152","NA","1664333","1542863","1634135","1665412","1665927","1542898","1604477","1614805","1665927","1667016","NA","1665397","Fraction component detection task","14","17988","18","yes","1280"
"78.9473684211","78.9473684211","985.105263158","985.105263158","#808080","no","legacy","legacy","legacy","0","uniform","1","undefined","undefined","undefined","1","l","0","0","0","18","0","0","18","18","0","0","0","18","18","0","18","Tue Apr 24 08:58:50 2018","#757575","low","3","The main experiment item","yes","","experiment.osexp","/Users/tom/github/sft-fraction/procedure","no","mono","no","24","no","white","no","yes","800","legacy","18","18","0","/Users/tom/github/sft-fraction/results/subject-1.csv","legacy","#757575","low","7","Jazzy James","3.1.9","0","l","NA","space","space","space","l","NA","729","NA","61562","10311","19327","729","NA","2","legacy","1024","2","48000","-16","experiment","1","odd","present","1634152","1634152","NA","1664333","1542863","1634135","1667103","1667621","1542898","1604477","1614805","1667621","1668352","NA","1667085","Fraction component detection task","15","18717","19","yes","1280"
"80","80","980.35","980.35","#808080","no","legacy","legacy","legacy","0","uniform","1","undefined","undefined","undefined","1","a","0","0","0","19","0","0","19","19","0","0","0","19","19","0","19","Tue Apr 24 08:58:50 2018","#000000","high","3","The main experiment item","yes","","experiment.osexp","/Users/tom/github/sft-fraction/procedure","no","mono","no","24","no","white","no","yes","800","legacy","19","19","0","/Users/tom/github/sft-fraction/results/subject-1.csv","legacy","#000000","high","4","Jazzy James","3.1.9","0","a","NA","space","space","space","a","NA","890","NA","61562","10311","19327","890","NA","2","legacy","1024","2","48000","-16","experiment","1","odd","absent","1634152","1634152","NA","1664333","1542863","1634135","1668432","1668949","1542898","1604477","1614805","1668949","1669841","NA","1668418","Fraction component detection task","16","19607","20","yes","1280"
"80.9523809524","80.9523809524","967.761904762","967.761904762","#808080","no","legacy","legacy","legacy","0","uniform","1","undefined","undefined","undefined","1","l","0","0","0","20","0","0","20","20","0","0","0","20","20","0","20","Tue Apr 24 08:58:50 2018","#757575","low","7","The main experiment item","yes","","experiment.osexp","/Users/tom/github/sft-fraction/procedure","no","mono","no","24","no","white","no","yes","800","legacy","20","20","0","/Users/tom/github/sft-fraction/results/subject-1.csv","legacy","#757575","low","2","Jazzy James","3.1.9","0","l","NA","space","space","space","l","NA","716","NA","61562","10311","19327","716","NA","2","legacy","1024","2","48000","-16","experiment","1","odd","present","1634152","1634152","NA","1664333","1542863","1634135","1669926","1670442","1542898","1604477","1614805","1670442","1671160","NA","1669907","Fraction component detection task","17","20323","21","yes","1280"
"81.8181818182","81.8181818182","957.409090909","957.409090909","#808080","no","legacy","legacy","legacy","0","uniform","1","undefined","undefined","undefined","1","l","0","0","0","21","0","0","21","21","0","0","0","21","21","0","21","Tue Apr 24 08:58:50 2018","#000000","high","2","The main experiment item","yes","","experiment.osexp","/Users/tom/github/sft-fraction/procedure","no","mono","no","24","no","white","no","yes","800","legacy","21","21","0","/Users/tom/github/sft-fraction/results/subject-1.csv","legacy","#757575","low","8","Jazzy James","3.1.9","0","l","NA","space","space","space","l","NA","740","NA","61562","10311","19327","740","NA","2","legacy","1024","2","48000","-16","experiment","1","odd","present","1634152","1634152","NA","1664333","1542863","1634135","1671247","1671763","1542898","1604477","1614805","1671763","1672505","NA","1671228","Fraction component detection task","18","21063","22","yes","1280"
"82.6086956522","82.6086956522","944.47826087","944.47826087","#808080","no","legacy","legacy","legacy","0","uniform","1","undefined","undefined","undefined","1","l","0","0","0","22","0","0","22","22","0","0","0","22","22","0","22","Tue Apr 24 08:58:50 2018","#000000","high","6","The main experiment item","yes","","experiment.osexp","/Users/tom/github/sft-fraction/procedure","no","mono","no","24","no","white","no","yes","800","legacy","22","22","0","/Users/tom/github/sft-fraction/results/subject-1.csv","legacy","#757575","low","6","Jazzy James","3.1.9","0","l","NA","space","space","space","l","NA","660","NA","61562","10311","19327","660","NA","2","legacy","1024","2","48000","-16","experiment","1","odd","present","1634152","1634152","NA","1664333","1542863","1634135","1672584","1673099","1542898","1604477","1614805","1673099","1673762","NA","1672569","Fraction component detection task","19","21723","23","yes","1280"
"83.3333333333","83.3333333333","926.875","926.875","#808080","no","legacy","legacy","legacy","0","uniform","1","undefined","undefined","undefined","1","a","0","0","0","23","0","0","23","23","0","0","0","23","23","0","23","Tue Apr 24 08:58:50 2018","#757575","low","4","The main experiment item","yes","","experiment.osexp","/Users/tom/github/sft-fraction/procedure","no","mono","no","24","no","white","no","yes","800","legacy","23","23","0","/Users/tom/github/sft-fraction/results/subject-1.csv","legacy","#000000","high","4","Jazzy James","3.1.9","0","a","NA","space","space","space","a","NA","522","NA","61562","10311","19327","522","NA","2","legacy","1024","2","48000","-16","experiment","1","odd","absent","1634152","1634152","NA","1664333","1542863","1634135","1673849","1674366","1542898","1604477","1614805","1674366","1674889","NA","1673831","Fraction component detection task","20","22245","24","yes","1280"
"84","84","915.4","915.4","#808080","no","legacy","legacy","legacy","0","uniform","1","undefined","undefined","undefined","1","a","0","0","0","24","0","0","24","24","0","0","0","24","24","0","24","Tue Apr 24 08:58:50 2018","#000000","high","3","The main experiment item","yes","","experiment.osexp","/Users/tom/github/sft-fraction/procedure","no","mono","no","24","no","white","no","yes","800","legacy","24","24","0","/Users/tom/github/sft-fraction/results/subject-1.csv","legacy","#757575","low","3","Jazzy James","3.1.9","0","a","NA","space","space","space","a","NA","640","NA","61562","10311","19327","640","NA","2","legacy","1024","2","48000","-16","experiment","1","odd","absent","1634152","1634152","NA","1664333","1542863","1634135","1674971","1675486","1542898","1604477","1614805","1675486","1676128","NA","1674955","Fraction component detection task","21","22885","25","yes","1280"
"84.6153846154","84.6153846154","924.307692308","924.307692308","#808080","no","legacy","legacy","legacy","0","uniform","1","undefined","undefined","undefined","1","a","0","0","0","25","0","0","25","25","0","0","0","25","25","0","25","Tue Apr 24 08:58:50 2018","#000000","high","4","The main experiment item","yes","","experiment.osexp","/Users/tom/github/sft-fraction/procedure","no","mono","no","24","no","white","no","yes","800","legacy","25","25","0","/Users/tom/github/sft-fraction/results/subject-1.csv","legacy","#000000","high","3","Jazzy James","3.1.9","0","a","NA","space","space","space","a","NA","1147","NA","61562","10311","19327","1147","NA","2","legacy","1024","2","48000","-16","experiment","1","odd","absent","1634152","1634152","NA","1664333","1542863","1634135","1676216","1676733","1542898","1604477","1614805","1676733","1677882","NA","1676196","Fraction component detection task","22","24032","26","yes","1280"
"85.1851851852","85.1851851852","923.407407407","923.407407407","#808080","no","legacy","legacy","legacy","0","uniform","1","undefined","undefined","undefined","1","a","0","0","0","26","0","0","26","26","0","0","0","26","26","0","26","Tue Apr 24 08:58:50 2018","#000000","high","2","The main experiment item","yes","","experiment.osexp","/Users/tom/github/sft-fraction/procedure","no","mono","no","24","no","white","no","yes","800","legacy","26","26","0","/Users/tom/github/sft-fraction/results/subject-1.csv","legacy","#000000","high","4","Jazzy James","3.1.9","0","a","NA","space","space","space","a","NA","900","NA","61562","10311","19327","900","NA","2","legacy","1024","2","48000","-16","experiment","1","odd","absent","1634152","1634152","NA","1664333","1542863","1634135","1677968","1678484","1542898","1604477","1614805","1678484","1679386","NA","1677953","Fraction component detection task","23","24932","27","yes","1280"
"85.7142857143","85.7142857143","911.607142857","911.607142857","#808080","no","legacy","legacy","legacy","0","uniform","1","undefined","undefined","undefined","1","l","0","0","0","27","0","0","27","27","0","0","0","27","27","0","27","Tue Apr 24 08:58:50 2018","#757575","low","4","The main experiment item","yes","","experiment.osexp","/Users/tom/github/sft-fraction/procedure","no","mono","no","24","no","white","no","yes","800","legacy","27","27","0","/Users/tom/github/sft-fraction/results/subject-1.csv","legacy","#757575","low","8","Jazzy James","3.1.9","0","l","NA","space","space","space","l","NA","593","NA","61562","10311","19327","593","NA","2","legacy","1024","2","48000","-16","experiment","1","odd","present","1634152","1634152","NA","1664333","1542863","1634135","1679476","1679991","1542898","1604477","1614805","1679991","1680586","NA","1679460","Fraction component detection task","24","25525","28","yes","1280"
"86.2068965517","86.2068965517","902.172413793","902.172413793","#808080","no","legacy","legacy","legacy","0","uniform","1","undefined","undefined","undefined","1","a","0","0","0","28","0","0","28","28","0","0","0","28","28","0","28","Tue Apr 24 08:58:50 2018","#757575","low","4","The main experiment item","yes","","experiment.osexp","/Users/tom/github/sft-fraction/procedure","no","mono","no","24","no","white","no","yes","800","legacy","28","28","0","/Users/tom/github/sft-fraction/results/subject-1.csv","legacy","#757575","low","2","Jazzy James","3.1.9","0","a","NA","space","space","space","a","NA","638","NA","61562","10311","19327","638","NA","2","legacy","1024","2","48000","-16","experiment","1","odd","absent","1634152","1634152","NA","1664333","1542863","1634135","1680670","1681186","1542898","1604477","1614805","1681186","1681826","NA","1680653","Fraction component detection task","25","26163","29","yes","1280"
"86.6666666667","86.6666666667","891.233333333","891.233333333","#808080","no","legacy","legacy","legacy","0","uniform","1","undefined","undefined","undefined","1","a","0","0","0","29","0","0","29","29","0","0","0","29","29","0","29","Tue Apr 24 08:58:50 2018","#757575","low","2","The main experiment item","yes","","experiment.osexp","/Users/tom/github/sft-fraction/procedure","no","mono","no","24","no","white","no","yes","800","legacy","29","29","0","/Users/tom/github/sft-fraction/results/subject-1.csv","legacy","#000000","high","2","Jazzy James","3.1.9","0","a","NA","space","space","space","a","NA","574","NA","61562","10311","19327","574","NA","2","legacy","1024","2","48000","-16","experiment","1","odd","absent","1634152","1634152","NA","1664333","1542863","1634135","1681915","1682433","1542898","1604477","1614805","1682433","1683009","NA","1681897","Fraction component detection task","26","26737","30","yes","1280"
"87.0967741935","87.0967741935","886.161290323","886.161290323","#808080","no","legacy","legacy","legacy","0","uniform","1","undefined","undefined","undefined","1","a","0","0","0","30","0","0","30","30","0","0","0","30","30","0","30","Tue Apr 24 08:58:50 2018","#000000","high","2","The main experiment item","yes","","experiment.osexp","/Users/tom/github/sft-fraction/procedure","no","mono","no","24","no","white","no","yes","800","legacy","30","30","0","/Users/tom/github/sft-fraction/results/subject-1.csv","legacy","#000000","high","4","Jazzy James","3.1.9","0","a","NA","space","space","space","a","NA","734","NA","61562","10311","19327","734","NA","2","legacy","1024","2","48000","-16","experiment","1","odd","absent","1634152","1634152","NA","1664333","1542863","1634135","1683093","1683609","1542898","1604477","1614805","1683609","1684345","NA","1683073","Fraction component detection task","27","27471","31","yes","1280"
"87.5","87.5","876.78125","876.78125","#808080","no","legacy","legacy","legacy","0","uniform","1","undefined","undefined","undefined","1","l","0","0","0","31","0","0","31","31","0","0","0","31","31","0","31","Tue Apr 24 08:58:50 2018","#757575","low","6","The main experiment item","yes","","experiment.osexp","/Users/tom/github/sft-fraction/procedure","no","mono","no","24","no","white","no","yes","800","legacy","31","31","0","/Users/tom/github/sft-fraction/results/subject-1.csv","legacy","#757575","low","3","Jazzy James","3.1.9","0","l","NA","space","space","space","l","NA","586","NA","61562","10311","19327","586","NA","2","legacy","1024","2","48000","-16","experiment","1","odd","present","1634152","1634152","NA","1664333","1542863","1634135","1684434","1684949","1542898","1604477","1614805","1684950","1685538","NA","1684416","Fraction component detection task","28","28057","32","yes","1280"
"87.8787878788","87.8787878788","866.090909091","866.090909091","#808080","no","legacy","legacy","legacy","0","uniform","1","undefined","undefined","undefined","1","a","0","0","0","32","0","0","32","32","0","0","0","32","32","0","32","Tue Apr 24 08:58:50 2018","#000000","high","3","The main experiment item","yes","","experiment.osexp","/Users/tom/github/sft-fraction/procedure","no","mono","no","24","no","white","no","yes","800","legacy","32","32","0","/Users/tom/github/sft-fraction/results/subject-1.csv","legacy","#000000","high","2","Jazzy James","3.1.9","0","a","NA","space","space","space","a","NA","524","NA","61562","10311","19327","524","NA","2","legacy","1024","2","48000","-16","experiment","1","odd","absent","1634152","1634152","NA","1664333","1542863","1634135","1685616","1686132","1542898","1604477","1614805","1686132","1686658","NA","1685601","Fraction component detection task","29","28581","33","yes","1280"
"88.2352941176","88.2352941176","855.558823529","855.558823529","#808080","no","legacy","legacy","legacy","0","uniform","1","undefined","undefined","undefined","1","l","0","0","0","33","0","0","33","33","0","0","0","33","33","0","33","Tue Apr 24 08:58:50 2018","#000000","high","6","The main experiment item","yes","","experiment.osexp","/Users/tom/github/sft-fraction/procedure","no","mono","no","24","no","white","no","yes","800","legacy","33","33","0","/Users/tom/github/sft-fraction/results/subject-1.csv","legacy","#757575","low","7","Jazzy James","3.1.9","0","l","NA","space","space","space","l","NA","508","NA","61562","10311","19327","508","NA","2","legacy","1024","2","48000","-16","experiment","1","odd","present","1634152","1634152","NA","1664333","1542863","1634135","1686737","1687252","1542898","1604477","1614805","1687252","1687762","NA","1686723","Fraction component detection task","30","29089","34","yes","1280"
"88.5714285714","88.5714285714","846.857142857","846.857142857","#808080","no","legacy","legacy","legacy","0","uniform","1","undefined","undefined","undefined","1","a","0","0","0","34","0","0","34","34","0","0","0","34","34","0","34","Tue Apr 24 08:58:50 2018","#757575","low","2","The main experiment item","yes","","experiment.osexp","/Users/tom/github/sft-fraction/procedure","no","mono","no","24","no","white","no","yes","800","legacy","34","34","0","/Users/tom/github/sft-fraction/results/subject-1.csv","legacy","#757575","low","4","Jazzy James","3.1.9","0","a","NA","space","space","space","a","NA","551","NA","61562","10311","19327","551","NA","2","legacy","1024","2","48000","-16","experiment","1","odd","absent","1634152","1634152","NA","1664333","1542863","1634135","1687844","1688361","1542898","1604477","1614805","1688361","1688914","NA","1687828","Fraction component detection task","31","29640","35","yes","1280"
"88.8888888889","88.8888888889","836.777777778","836.777777778","#808080","no","legacy","legacy","legacy","0","uniform","1","undefined","undefined","undefined","1","a","0","0","0","35","0","0","35","35","0","0","0","35","35","0","35","Tue Apr 24 08:58:50 2018","#757575","low","2","The main experiment item","yes","","experiment.osexp","/Users/tom/github/sft-fraction/procedure","no","mono","no","24","no","white","no","yes","800","legacy","35","35","0","/Users/tom/github/sft-fraction/results/subject-1.csv","legacy","#757575","low","2","Jazzy James","3.1.9","0","a","NA","space","space","space","a","NA","484","NA","61562","10311","19327","484","NA","2","legacy","1024","2","48000","-16","experiment","1","odd","absent","1634152","1634152","NA","1664333","1542863","1634135","1688992","1689507","1542898","1604477","1614805","1689508","1689994","NA","1688977","Fraction component detection task","32","30124","36","yes","1280"
"89.1891891892","89.1891891892","827.324324324","827.324324324","#808080","no","legacy","legacy","legacy","0","uniform","1","undefined","undefined","undefined","1","l","0","0","0","36","0","0","36","36","0","0","0","36","36","0","36","Tue Apr 24 08:58:50 2018","#757575","low","3","The main experiment item","yes","","experiment.osexp","/Users/tom/github/sft-fraction/procedure","no","mono","no","24","no","white","no","yes","800","legacy","36","36","0","/Users/tom/github/sft-fraction/results/subject-1.csv","legacy","#000000","high","8","Jazzy James","3.1.9","0","l","NA","space","space","space","l","NA","487","NA","61562","10311","19327","487","NA","2","legacy","1024","2","48000","-16","experiment","1","odd","present","1634152","1634152","NA","1664333","1542863","1634135","1690075","1690591","1542898","1604477","1614805","1690592","1691081","NA","1690060","Fraction component detection task","33","30611","37","yes","1280"
"89.4736842105","89.4736842105","827.815789474","827.815789474","#808080","no","legacy","legacy","legacy","0","uniform","1","undefined","undefined","undefined","1","a","0","0","0","37","0","0","37","37","0","0","0","37","37","0","37","Tue Apr 24 08:58:50 2018","#000000","high","3","The main experiment item","yes","","experiment.osexp","/Users/tom/github/sft-fraction/procedure","no","mono","no","24","no","white","no","yes","800","legacy","37","37","0","/Users/tom/github/sft-fraction/results/subject-1.csv","legacy","#757575","low","2","Jazzy James","3.1.9","0","a","NA","space","space","space","a","NA","846","NA","61562","10311","19327","846","NA","2","legacy","1024","2","48000","-16","experiment","1","odd","absent","1634152","1634152","NA","1664333","1542863","1634135","1691166","1691682","1542898","1604477","1614805","1691682","1692530","NA","1691147","Fraction component detection task","34","31457","38","yes","1280"
"89.7435897436","89.7435897436","823.538461538","823.538461538","#808080","no","legacy","legacy","legacy","0","uniform","1","undefined","undefined","undefined","1","l","0","0","0","38","0","0","38","38","0","0","0","38","38","0","38","Tue Apr 24 08:58:50 2018","#757575","low","6","The main experiment item","yes","","experiment.osexp","/Users/tom/github/sft-fraction/procedure","no","mono","no","24","no","white","no","yes","800","legacy","38","38","0","/Users/tom/github/sft-fraction/results/subject-1.csv","legacy","#757575","low","7","Jazzy James","3.1.9","0","l","NA","space","space","space","l","NA","661","NA","61562","10311","19327","661","NA","2","legacy","1024","2","48000","-16","experiment","1","odd","present","1634152","1634152","NA","1664333","1542863","1634135","1692616","1693131","1542898","1604477","1614805","1693131","1693794","NA","1692599","Fraction component detection task","35","32118","39","yes","1280"
"90","90","832.65","832.65","#808080","no","legacy","legacy","legacy","0","uniform","1","undefined","undefined","undefined","1","l","0","0","0","39","0","0","39","39","0","0","0","39","39","0","39","Tue Apr 24 08:58:50 2018","#000000","high","2","The main experiment item","yes","","experiment.osexp","/Users/tom/github/sft-fraction/procedure","no","mono","no","24","no","white","no","yes","800","legacy","39","39","0","/Users/tom/github/sft-fraction/results/subject-1.csv","legacy","#757575","low","6","Jazzy James","3.1.9","0","l","NA","space","space","space","l","NA","1188","NA","61562","10311","19327","1188","NA","2","legacy","1024","2","48000","-16","experiment","1","odd","present","1634152","1634152","NA","1664333","1542863","1634135","1693879","1694396","1542898","1604477","1614805","1694397","1695587","NA","1693860","Fraction component detection task","36","33306","40","yes","1280"
"90.243902439","90.243902439","829.097560976","829.097560976","#808080","no","legacy","legacy","legacy","0","uniform","1","undefined","undefined","undefined","1","l","0","0","0","40","0","0","40","40","0","0","0","40","40","0","40","Tue Apr 24 08:58:50 2018","#000000","high","6","The main experiment item","yes","","experiment.osexp","/Users/tom/github/sft-fraction/procedure","no","mono","no","24","no","white","no","yes","800","legacy","40","40","0","/Users/tom/github/sft-fraction/results/subject-1.csv","legacy","#000000","high","3","Jazzy James","3.1.9","0","l","NA","space","space","space","l","NA","687","NA","61562","10311","19327","687","NA","2","legacy","1024","2","48000","-16","experiment","1","odd","present","1634152","1634152","NA","1664333","1542863","1634135","1695671","1696186","1542898","1604477","1614805","1696186","1696875","NA","1695657","Fraction component detection task","37","33993","41","yes","1280"
"90.4761904762","90.4761904762","821.976190476","821.976190476","#808080","no","legacy","legacy","legacy","0","uniform","1","undefined","undefined","undefined","1","l","0","0","0","41","0","0","41","41","0","0","0","41","41","0","41","Tue Apr 24 08:58:50 2018","#000000","high","7","The main experiment item","yes","","experiment.osexp","/Users/tom/github/sft-fraction/procedure","no","mono","no","24","no","white","no","yes","800","legacy","41","41","0","/Users/tom/github/sft-fraction/results/subject-1.csv","legacy","#757575","low","4","Jazzy James","3.1.9","0","l","NA","space","space","space","l","NA","530","NA","61562","10311","19327","530","NA","2","legacy","1024","2","48000","-16","experiment","1","odd","present","1634152","1634152","NA","1664333","1542863","1634135","1696962","1697478","1542898","1604477","1614805","1697478","1698010","NA","1696947","Fraction component detection task","38","34523","42","yes","1280"
"90.6976744186","90.6976744186","814.860465116","814.860465116","#808080","no","legacy","legacy","legacy","0","uniform","1","undefined","undefined","undefined","1","a","0","0","0","42","0","0","42","42","0","0","0","42","42","0","42","Tue Apr 24 08:58:50 2018","#757575","low","3","The main experiment item","yes","","experiment.osexp","/Users/tom/github/sft-fraction/procedure","no","mono","no","24","no","white","no","yes","800","legacy","42","42","0","/Users/tom/github/sft-fraction/results/subject-1.csv","legacy","#757575","low","2","Jazzy James","3.1.9","0","a","NA","space","space","space","a","NA","516","NA","61562","10311","19327","516","NA","2","legacy","1024","2","48000","-16","experiment","1","odd","absent","1634152","1634152","NA","1664333","1542863","1634135","1698091","1698611","1542898","1604477","1614805","1698612","1699130","NA","1698077","Fraction component detection task","39","35039","43","yes","1280"
"90.9090909091","90.9090909091","807.272727273","807.272727273","#808080","no","legacy","legacy","legacy","0","uniform","1","undefined","undefined","undefined","1","a","0","0","0","43","0","0","43","43","0","0","0","43","43","0","43","Tue Apr 24 08:58:50 2018","#000000","high","3","The main experiment item","yes","","experiment.osexp","/Users/tom/github/sft-fraction/procedure","no","mono","no","24","no","white","no","yes","800","legacy","43","43","0","/Users/tom/github/sft-fraction/results/subject-1.csv","legacy","#000000","high","2","Jazzy James","3.1.9","0","a","NA","space","space","space","a","NA","481","NA","61562","10311","19327","481","NA","2","legacy","1024","2","48000","-16","experiment","1","odd","absent","1634152","1634152","NA","1664333","1542863","1634135","1699219","1699734","1542898","1604477","1614805","1699735","1700218","NA","1699199","Fraction component detection task","40","35520","44","yes","1280"
"91.1111111111","91.1111111111","798.133333333","798.133333333","#808080","no","legacy","legacy","legacy","0","uniform","1","undefined","undefined","undefined","1","a","0","0","0","44","0","0","44","44","0","0","0","44","44","0","44","Tue Apr 24 08:58:50 2018","#000000","high","2","The main experiment item","yes","","experiment.osexp","/Users/tom/github/sft-fraction/procedure","no","mono","no","24","no","white","no","yes","800","legacy","44","44","0","/Users/tom/github/sft-fraction/results/subject-1.csv","legacy","#757575","low","3","Jazzy James","3.1.9","0","a","NA","space","space","space","a","NA","396","NA","61562","10311","19327","396","NA","2","legacy","1024","2","48000","-16","experiment","1","odd","absent","1634152","1634152","NA","1664333","1542863","1634135","1700304","1700819","1542898","1604477","1614805","1700820","1701219","NA","1700289","Fraction component detection task","41","35916","45","yes","1280"
"91.3043478261","91.3043478261","793.326086957","793.326086957","#808080","no","legacy","legacy","legacy","0","uniform","1","undefined","undefined","undefined","1","l","0","0","0","45","0","0","45","45","0","0","0","45","45","0","45","Tue Apr 24 08:58:50 2018","#757575","low","6","The main experiment item","yes","","experiment.osexp","/Users/tom/github/sft-fraction/procedure","no","mono","no","24","no","white","no","yes","800","legacy","45","45","0","/Users/tom/github/sft-fraction/results/subject-1.csv","legacy","#000000","high","4","Jazzy James","3.1.9","0","l","NA","space","space","space","l","NA","577","NA","61562","10311","19327","577","NA","2","legacy","1024","2","48000","-16","experiment","1","odd","present","1634152","1634152","NA","1664333","1542863","1634135","1701305","1701823","1542898","1604477","1614805","1701824","1702405","NA","1701290","Fraction component detection task","42","36493","46","yes","1280"
"91.4893617021","91.4893617021","786.021276596","786.021276596","#808080","no","legacy","legacy","legacy","0","uniform","1","undefined","undefined","undefined","1","a","0","0","0","46","0","0","46","46","0","0","0","46","46","0","46","Tue Apr 24 08:58:50 2018","#757575","low","3","The main experiment item","yes","","experiment.osexp","/Users/tom/github/sft-fraction/procedure","no","mono","no","24","no","white","no","yes","800","legacy","46","46","0","/Users/tom/github/sft-fraction/results/subject-1.csv","legacy","#000000","high","3","Jazzy James","3.1.9","0","a","NA","space","space","space","a","NA","450","NA","61562","10311","19327","450","NA","2","legacy","1024","2","48000","-16","experiment","1","odd","absent","1634152","1634152","NA","1664333","1542863","1634135","1702493","1703007","1542898","1604477","1614805","1703007","1703459","NA","1702474","Fraction component detection task","43","36943","47","yes","1280"
"91.6666666667","91.6666666667","789.583333333","789.583333333","#808080","no","legacy","legacy","legacy","0","uniform","1","undefined","undefined","undefined","1","a","0","0","0","47","0","0","47","47","0","0","0","47","47","0","47","Tue Apr 24 08:58:50 2018","#000000","high","4","The main experiment item","yes","","experiment.osexp","/Users/tom/github/sft-fraction/procedure","no","mono","no","24","no","white","no","yes","800","legacy","47","47","0","/Users/tom/github/sft-fraction/results/subject-1.csv","legacy","#757575","low","2","Jazzy James","3.1.9","0","a","NA","space","space","space","a","NA","957","NA","61562","10311","19327","957","NA","2","legacy","1024","2","48000","-16","experiment","1","odd","absent","1634152","1634152","NA","1664333","1542863","1634135","1703541","1704059","1542898","1604477","1614805","1704059","1705018","NA","1703525","Fraction component detection task","44","37900","48","yes","1280"
"91.8367346939","91.8367346939","784.428571429","784.428571429","#808080","no","legacy","legacy","legacy","0","uniform","1","undefined","undefined","undefined","1","l","0","0","0","48","0","0","48","48","0","0","0","48","48","0","48","Tue Apr 24 08:58:50 2018","#757575","low","6","The main experiment item","yes","","experiment.osexp","/Users/tom/github/sft-fraction/procedure","no","mono","no","24","no","white","no","yes","800","legacy","48","48","0","/Users/tom/github/sft-fraction/results/subject-1.csv","legacy","#000000","high","7","Jazzy James","3.1.9","0","l","NA","space","space","space","l","NA","537","NA","61562","10311","19327","537","NA","2","legacy","1024","2","48000","-16","experiment","1","odd","present","1634152","1634152","NA","1664333","1542863","1634135","1705099","1705614","1542898","1604477","1614805","1705615","1706154","NA","1705084","Fraction component detection task","45","38437","49","yes","1280"
"92","92","779.52","779.52","#808080","no","legacy","legacy","legacy","0","uniform","1","undefined","undefined","undefined","1","l","0","0","0","49","0","0","49","49","0","0","0","49","49","0","49","Tue Apr 24 08:58:50 2018","#000000","high","8","The main experiment item","yes","","experiment.osexp","/Users/tom/github/sft-fraction/procedure","no","mono","no","24","no","white","no","yes","800","legacy","49","49","0","/Users/tom/github/sft-fraction/results/subject-1.csv","legacy","#000000","high","4","Jazzy James","3.1.9","0","l","NA","space","space","space","l","NA","539","NA","61562","10311","19327","539","NA","2","legacy","1024","2","48000","-16","experiment","1","odd","present","1634152","1634152","NA","1664333","1542863","1634135","1706239","1706756","1542898","1604477","1614805","1706757","1707299","NA","1706220","Fraction component detection task","46","38976","50","yes","1280"
"92.1568627451","92.1568627451","773.470588235","773.470588235","#808080","no","legacy","legacy","legacy","0","uniform","1","undefined","undefined","undefined","1","a","0","0","0","50","0","0","50","50","0","0","0","50","50","0","50","Tue Apr 24 08:58:50 2018","#000000","high","2","The main experiment item","yes","","experiment.osexp","/Users/tom/github/sft-fraction/procedure","no","mono","no","24","no","white","no","yes","800","legacy","50","50","0","/Users/tom/github/sft-fraction/results/subject-1.csv","legacy","#000000","high","4","Jazzy James","3.1.9","0","a","NA","space","space","space","a","NA","471","NA","61562","10311","19327","471","NA","2","legacy","1024","2","48000","-16","experiment","1","odd","absent","1634152","1634152","NA","1664333","1542863","1634135","1707390","1707906","1542898","1604477","1614805","1707906","1708380","NA","1707370","Fraction component detection task","47","39447","51","yes","1280"
"92.3076923077","92.3076923077","766.384615385","766.384615385","#808080","no","legacy","legacy","legacy","0","uniform","1","undefined","undefined","undefined","1","l","0","0","0","51","0","0","51","51","0","0","0","51","51","0","51","Tue Apr 24 08:58:50 2018","#000000","high","7","The main experiment item","yes","","experiment.osexp","/Users/tom/github/sft-fraction/procedure","no","mono","no","24","no","white","no","yes","800","legacy","51","51","0","/Users/tom/github/sft-fraction/results/subject-1.csv","legacy","#000000","high","3","Jazzy James","3.1.9","0","l","NA","space","space","space","l","NA","405","NA","61562","10311","19327","405","NA","2","legacy","1024","2","48000","-16","experiment","1","odd","present","1634152","1634152","NA","1664333","1542863","1634135","1708468","1708988","1542898","1604477","1614805","1708988","1709395","NA","1708450","Fraction component detection task","48","39852","52","yes","1280"
"92.4528301887","92.4528301887","760.698113208","760.698113208","#808080","no","legacy","legacy","legacy","0","uniform","1","undefined","undefined","undefined","1","l","0","0","0","52","0","0","52","52","0","0","0","52","52","0","52","Tue Apr 24 08:58:50 2018","#000000","high","6","The main experiment item","yes","","experiment.osexp","/Users/tom/github/sft-fraction/procedure","no","mono","no","24","no","white","no","yes","800","legacy","52","52","0","/Users/tom/github/sft-fraction/results/subject-1.csv","legacy","#757575","low","4","Jazzy James","3.1.9","0","l","NA","space","space","space","l","NA","465","NA","61562","10311","19327","465","NA","2","legacy","1024","2","48000","-16","experiment","1","odd","present","1634152","1634152","NA","1664333","1542863","1634135","1709477","1709992","1542898","1604477","1614805","1709992","1710460","NA","1709462","Fraction component detection task","49","40317","53","yes","1280"
"92.5925925926","92.5925925926","759.037037037","759.037037037","#808080","no","legacy","legacy","legacy","0","uniform","1","undefined","undefined","undefined","1","a","0","0","0","53","0","0","53","53","0","0","0","53","53","0","53","Tue Apr 24 08:58:50 2018","#757575","low","3","The main experiment item","yes","","experiment.osexp","/Users/tom/github/sft-fraction/procedure","no","mono","no","24","no","white","no","yes","800","legacy","53","53","0","/Users/tom/github/sft-fraction/results/subject-1.csv","legacy","#757575","low","4","Jazzy James","3.1.9","0","a","NA","space","space","space","a","NA","671","NA","61562","10311","19327","671","NA","2","legacy","1024","2","48000","-16","experiment","1","odd","absent","1634152","1634152","NA","1664333","1542863","1634135","1710547","1711066","1542898","1604477","1614805","1711066","1711740","NA","1710527","Fraction component detection task","50","40988","54","yes","1280"
"92.7272727273","92.7272727273","757.363636364","757.363636364","#808080","no","legacy","legacy","legacy","0","uniform","1","undefined","undefined","undefined","1","a","0","0","0","54","0","0","54","54","0","0","0","54","54","0","54","Tue Apr 24 08:58:50 2018","#000000","high","4","The main experiment item","yes","","experiment.osexp","/Users/tom/github/sft-fraction/procedure","no","mono","no","24","no","white","no","yes","800","legacy","54","54","0","/Users/tom/github/sft-fraction/results/subject-1.csv","legacy","#757575","low","3","Jazzy James","3.1.9","0","a","NA","space","space","space","a","NA","667","NA","61562","10311","19327","667","NA","2","legacy","1024","2","48000","-16","experiment","1","odd","absent","1634152","1634152","NA","1664333","1542863","1634135","1711827","1712342","1542898","1604477","1614805","1712342","1713012","NA","1711807","Fraction component detection task","51","41655","55","yes","1280"
"92.8571428571","92.8571428571","752.589285714","752.589285714","#808080","no","legacy","legacy","legacy","0","uniform","1","undefined","undefined","undefined","1","l","0","0","0","55","0","0","55","55","0","0","0","55","55","0","55","Tue Apr 24 08:58:50 2018","#757575","low","3","The main experiment item","yes","","experiment.osexp","/Users/tom/github/sft-fraction/procedure","no","mono","no","24","no","white","no","yes","800","legacy","55","55","0","/Users/tom/github/sft-fraction/results/subject-1.csv","legacy","#000000","high","6","Jazzy James","3.1.9","0","l","NA","space","space","space","l","NA","490","NA","61562","10311","19327","490","NA","2","legacy","1024","2","48000","-16","experiment","1","odd","present","1634152","1634152","NA","1664333","1542863","1634135","1713099","1713615","1542898","1604477","1614805","1713615","1714107","NA","1713084","Fraction component detection task","52","42145","56","yes","1280"
"92.9824561404","92.9824561404","748.280701754","748.280701754","#808080","no","legacy","legacy","legacy","0","uniform","1","undefined","undefined","undefined","1","a","0","0","0","56","0","0","56","56","0","0","0","56","56","0","56","Tue Apr 24 08:58:50 2018","#757575","low","2","The main experiment item","yes","","experiment.osexp","/Users/tom/github/sft-fraction/procedure","no","mono","no","24","no","white","no","yes","800","legacy","56","56","0","/Users/tom/github/sft-fraction/results/subject-1.csv","legacy","#000000","high","3","Jazzy James","3.1.9","0","a","NA","space","space","space","a","NA","507","NA","61562","10311","19327","507","NA","2","legacy","1024","2","48000","-16","experiment","1","odd","absent","1634152","1634152","NA","1664333","1542863","1634135","1714193","1714710","1542898","1604477","1614805","1714710","1715219","NA","1714173","Fraction component detection task","53","42652","57","yes","1280"
"93.1034482759","93.1034482759","744.637931034","744.637931034","#808080","no","legacy","legacy","legacy","0","uniform","1","undefined","undefined","undefined","1","a","0","0","0","57","0","0","57","57","0","0","0","57","57","0","57","Tue Apr 24 08:58:50 2018","#000000","high","4","The main experiment item","yes","","experiment.osexp","/Users/tom/github/sft-fraction/procedure","no","mono","no","24","no","white","no","yes","800","legacy","57","57","0","/Users/tom/github/sft-fraction/results/subject-1.csv","legacy","#757575","low","4","Jazzy James","3.1.9","0","a","NA","space","space","space","a","NA","537","NA","61562","10311","19327","537","NA","2","legacy","1024","2","48000","-16","experiment","1","odd","absent","1634152","1634152","NA","1664333","1542863","1634135","1715304","1715824","1542898","1604477","1614805","1715824","1716363","NA","1715290","Fraction component detection task","54","43189","58","yes","1280"
"93.2203389831","93.2203389831","742.830508475","742.830508475","#808080","no","legacy","legacy","legacy","0","uniform","1","undefined","undefined","undefined","1","a","0","0","0","58","0","0","58","58","0","0","0","58","58","0","58","Tue Apr 24 08:58:50 2018","#000000","high","3","The main experiment item","yes","","experiment.osexp","/Users/tom/github/sft-fraction/procedure","no","mono","no","24","no","white","no","yes","800","legacy","58","58","0","/Users/tom/github/sft-fraction/results/subject-1.csv","legacy","#000000","high","4","Jazzy James","3.1.9","0","a","NA","space","space","space","a","NA","638","NA","61562","10311","19327","638","NA","2","legacy","1024","2","48000","-16","experiment","1","odd","absent","1634152","1634152","NA","1664333","1542863","1634135","1716449","1716964","1542898","1604477","1614805","1716964","1717604","NA","1716429","Fraction component detection task","55","43827","59","yes","1280"
"93.3333333333","93.3333333333","739.683333333","739.683333333","#808080","no","legacy","legacy","legacy","0","uniform","1","undefined","undefined","undefined","1","a","0","0","0","59","0","0","59","59","0","0","0","59","59","0","59","Tue Apr 24 08:58:50 2018","#000000","high","4","The main experiment item","yes","","experiment.osexp","/Users/tom/github/sft-fraction/procedure","no","mono","no","24","no","white","no","yes","800","legacy","59","59","0","/Users/tom/github/sft-fraction/results/subject-1.csv","legacy","#000000","high","3","Jazzy James","3.1.9","0","a","NA","space","space","space","a","NA","554","NA","61562","10311","19327","554","NA","2","legacy","1024","2","48000","-16","experiment","1","odd","absent","1634152","1634152","NA","1664333","1542863","1634135","1717685","1718200","1542898","1604477","1614805","1718200","1718757","NA","1717670","Fraction component detection task","56","44381","60","yes","1280"
"93.4426229508","93.4426229508","737.229508197","737.229508197","#808080","no","legacy","legacy","legacy","0","uniform","1","undefined","undefined","undefined","1","a","0","0","0","60","0","0","60","60","0","0","0","60","60","0","60","Tue Apr 24 08:58:50 2018","#000000","high","3","The main experiment item","yes","","experiment.osexp","/Users/tom/github/sft-fraction/procedure","no","mono","no","24","no","white","no","yes","800","legacy","60","60","0","/Users/tom/github/sft-fraction/results/subject-1.csv","legacy","#757575","low","3","Jazzy James","3.1.9","0","a","NA","space","space","space","a","NA","590","NA","61562","10311","19327","590","NA","2","legacy","1024","2","48000","-16","experiment","1","odd","absent","1634152","1634152","NA","1664333","1542863","1634135","1718839","1719356","1542898","1604477","1614805","1719356","1719948","NA","1718820","Fraction component detection task","57","44971","61","yes","1280"
"93.5483870968","93.5483870968","732.338709677","732.338709677","#808080","no","legacy","legacy","legacy","0","uniform","1","undefined","undefined","undefined","1","a","0","0","0","61","0","0","61","61","0","0","0","61","61","0","61","Tue Apr 24 08:58:50 2018","#000000","high","2","The main experiment item","yes","","experiment.osexp","/Users/tom/github/sft-fraction/procedure","no","mono","no","24","no","white","no","yes","800","legacy","61","61","0","/Users/tom/github/sft-fraction/results/subject-1.csv","legacy","#000000","high","2","Jazzy James","3.1.9","0","a","NA","space","space","space","a","NA","434","NA","61562","10311","19327","434","NA","2","legacy","1024","2","48000","-16","experiment","1","odd","absent","1634152","1634152","NA","1664333","1542863","1634135","1720028","1720544","1542898","1604477","1614805","1720544","1720980","NA","1720013","Fraction component detection task","58","45405","62","yes","1280"
"93.6507936508","93.6507936508","728.603174603","728.603174603","#808080","no","legacy","legacy","legacy","0","uniform","1","undefined","undefined","undefined","1","l","0","0","0","62","0","0","62","62","0","0","0","62","62","0","62","Tue Apr 24 08:58:50 2018","#757575","low","6","The main experiment item","yes","","experiment.osexp","/Users/tom/github/sft-fraction/procedure","no","mono","no","24","no","white","no","yes","800","legacy","62","62","0","/Users/tom/github/sft-fraction/results/subject-1.csv","legacy","#757575","low","6","Jazzy James","3.1.9","0","l","NA","space","space","space","l","NA","497","NA","61562","10311","19327","497","NA","2","legacy","1024","2","48000","-16","experiment","1","odd","present","1634152","1634152","NA","1664333","1542863","1634135","1721059","1721576","1542898","1604477","1614805","1721576","1722075","NA","1721044","Fraction component detection task","59","45902","63","yes","1280"
"93.75","93.75","724.125","724.125","#808080","no","legacy","legacy","legacy","0","uniform","1","undefined","undefined","undefined","1","a","0","0","0","63","0","0","63","63","0","0","0","63","63","0","63","Tue Apr 24 08:58:50 2018","#000000","high","3","The main experiment item","yes","","experiment.osexp","/Users/tom/github/sft-fraction/procedure","no","mono","no","24","no","white","no","yes","800","legacy","63","63","0","/Users/tom/github/sft-fraction/results/subject-1.csv","legacy","#000000","high","3","Jazzy James","3.1.9","0","a","NA","space","space","space","a","NA","442","NA","61562","10311","19327","442","NA","2","legacy","1024","2","48000","-16","experiment","1","odd","absent","1634152","1634152","NA","1664333","1542863","1634135","1722163","1722679","1542898","1604477","1614805","1722679","1723123","NA","1722143","Fraction component detection task","60","46344","64","yes","1280"
"93.8461538462","93.8461538462","720.492307692","720.492307692","#808080","no","legacy","legacy","legacy","0","uniform","1","undefined","undefined","undefined","1","a","0","0","0","64","0","0","64","64","0","0","0","64","64","0","64","Tue Apr 24 08:58:50 2018","#000000","high","3","The main experiment item","yes","","experiment.osexp","/Users/tom/github/sft-fraction/procedure","no","mono","no","24","no","white","no","yes","800","legacy","64","64","0","/Users/tom/github/sft-fraction/results/subject-1.csv","legacy","#000000","high","2","Jazzy James","3.1.9","0","a","NA","space","space","space","a","NA","488","NA","61562","10311","19327","488","NA","2","legacy","1024","2","48000","-16","experiment","1","odd","absent","1634152","1634152","NA","1664333","1542863","1634135","1723205","1723720","1542898","1604477","1614805","1723721","1724212","NA","1723190","Fraction component detection task","61","46832","65","yes","1280"
"93.9393939394","93.9393939394","718.545454545","718.545454545","#808080","no","legacy","legacy","legacy","0","uniform","1","undefined","undefined","undefined","1","a","0","0","0","65","0","0","65","65","0","0","0","65","65","0","65","Tue Apr 24 08:58:50 2018","#757575","low","4","The main experiment item","yes","","experiment.osexp","/Users/tom/github/sft-fraction/procedure","no","mono","no","24","no","white","no","yes","800","legacy","65","65","0","/Users/tom/github/sft-fraction/results/subject-1.csv","legacy","#757575","low","4","Jazzy James","3.1.9","0","a","NA","space","space","space","a","NA","592","NA","61562","10311","19327","592","NA","2","legacy","1024","2","48000","-16","experiment","1","odd","absent","1634152","1634152","NA","1664333","1542863","1634135","1724294","1724810","1542898","1604477","1614805","1724810","1725405","NA","1724279","Fraction component detection task","62","47424","66","yes","1280"
"94.0298507463","94.0298507463","715.074626866","715.074626866","#808080","no","legacy","legacy","legacy","0","uniform","1","undefined","undefined","undefined","1","l","0","0","0","66","0","0","66","66","0","0","0","66","66","0","66","Tue Apr 24 08:58:50 2018","#757575","low","6","The main experiment item","yes","","experiment.osexp","/Users/tom/github/sft-fraction/procedure","no","mono","no","24","no","white","no","yes","800","legacy","66","66","0","/Users/tom/github/sft-fraction/results/subject-1.csv","legacy","#757575","low","2","Jazzy James","3.1.9","0","l","NA","space","space","space","l","NA","486","NA","61562","10311","19327","486","NA","2","legacy","1024","2","48000","-16","experiment","1","odd","present","1634152","1634152","NA","1664333","1542863","1634135","1725490","1726004","1542898","1604477","1614805","1726004","1726493","NA","1725470","Fraction component detection task","63","47910","67","yes","1280"
"94.1176470588","94.1176470588","710.926470588","710.926470588","#808080","no","legacy","legacy","legacy","0","uniform","1","undefined","undefined","undefined","1","l","0","0","0","67","0","0","67","67","0","0","0","67","67","0","67","Tue Apr 24 08:58:50 2018","#757575","low","2","The main experiment item","yes","","experiment.osexp","/Users/tom/github/sft-fraction/procedure","no","mono","no","24","no","white","no","yes","800","legacy","67","67","0","/Users/tom/github/sft-fraction/results/subject-1.csv","legacy","#757575","low","6","Jazzy James","3.1.9","0","l","NA","space","space","space","l","NA","433","NA","61562","10311","19327","433","NA","2","legacy","1024","2","48000","-16","experiment","1","odd","present","1634152","1634152","NA","1664333","1542863","1634135","1726581","1727097","1542898","1604477","1614805","1727097","1727533","NA","1726563","Fraction component detection task","64","48343","68","yes","1280"
"94.2028985507","94.2028985507","708.68115942","708.68115942","#808080","no","legacy","legacy","legacy","0","uniform","1","undefined","undefined","undefined","1","l","0","0","0","68","0","0","68","68","0","0","0","68","68","0","68","Tue Apr 24 08:58:50 2018","#757575","low","3","The main experiment item","yes","","experiment.osexp","/Users/tom/github/sft-fraction/procedure","no","mono","no","24","no","white","no","yes","800","legacy","68","68","0","/Users/tom/github/sft-fraction/results/subject-1.csv","legacy","#000000","high","7","Jazzy James","3.1.9","0","l","NA","space","space","space","l","NA","556","NA","61562","10311","19327","556","NA","2","legacy","1024","2","48000","-16","experiment","1","odd","present","1634152","1634152","NA","1664333","1542863","1634135","1727615","1728134","1542898","1604477","1614805","1728134","1728693","NA","1727597","Fraction component detection task","65","48899","69","yes","1280"
"94.2857142857","94.2857142857","704.514285714","704.514285714","#808080","no","legacy","legacy","legacy","0","uniform","1","undefined","undefined","undefined","1","l","0","0","0","69","0","0","69","69","0","0","0","69","69","0","69","Tue Apr 24 08:58:50 2018","#757575","low","2","The main experiment item","yes","","experiment.osexp","/Users/tom/github/sft-fraction/procedure","no","mono","no","24","no","white","no","yes","800","legacy","69","69","0","/Users/tom/github/sft-fraction/results/subject-1.csv","legacy","#000000","high","7","Jazzy James","3.1.9","0","l","NA","space","space","space","l","NA","417","NA","61562","10311","19327","417","NA","2","legacy","1024","2","48000","-16","experiment","1","odd","present","1634152","1634152","NA","1664333","1542863","1634135","1728778","1729297","1542898","1604477","1614805","1729297","1729717","NA","1728763","Fraction component detection task","66","49316","70","yes","1280"
"94.3661971831","94.3661971831","700.352112676","700.352112676","#808080","no","legacy","legacy","legacy","0","uniform","1","undefined","undefined","undefined","1","l","0","0","0","70","0","0","70","70","0","0","0","70","70","0","70","Tue Apr 24 08:58:50 2018","#757575","low","4","The main experiment item","yes","","experiment.osexp","/Users/tom/github/sft-fraction/procedure","no","mono","no","24","no","white","no","yes","800","legacy","70","70","0","/Users/tom/github/sft-fraction/results/subject-1.csv","legacy","#000000","high","7","Jazzy James","3.1.9","0","l","NA","space","space","space","l","NA","409","NA","61562","10311","19327","409","NA","2","legacy","1024","2","48000","-16","experiment","1","odd","present","1634152","1634152","NA","1664333","1542863","1634135","1729797","1730312","1542898","1604477","1614805","1730313","1730725","NA","1729780","Fraction component detection task","67","49725","71","yes","1280"
"94.4444444444","94.4444444444","698.666666667","698.666666667","#808080","no","legacy","legacy","legacy","0","uniform","1","undefined","undefined","undefined","1","a","0","0","0","71","0","0","71","71","0","0","0","71","71","0","71","Tue Apr 24 08:58:50 2018","#757575","low","4","The main experiment item","yes","","experiment.osexp","/Users/tom/github/sft-fraction/procedure","no","mono","no","24","no","white","no","yes","800","legacy","71","71","0","/Users/tom/github/sft-fraction/results/subject-1.csv","legacy","#000000","high","4","Jazzy James","3.1.9","0","a","NA","space","space","space","a","NA","579","NA","61562","10311","19327","579","NA","2","legacy","1024","2","48000","-16","experiment","1","odd","absent","1634152","1634152","NA","1664333","1542863","1634135","1730805","1731320","1542898","1604477","1614805","1731320","1731901","NA","1730789","Fraction component detection task","68","50304","72","yes","1280"
"94.5205479452","94.5205479452","695.698630137","695.698630137","#808080","no","legacy","legacy","legacy","0","uniform","1","undefined","undefined","undefined","1","l","0","0","0","72","0","0","72","72","0","0","0","72","72","0","72","Tue Apr 24 08:58:50 2018","#000000","high","6","The main experiment item","yes","","experiment.osexp","/Users/tom/github/sft-fraction/procedure","no","mono","no","24","no","white","no","yes","800","legacy","72","72","0","/Users/tom/github/sft-fraction/results/subject-1.csv","legacy","#000000","high","6","Jazzy James","3.1.9","0","l","NA","space","space","space","l","NA","482","NA","61562","10311","19327","482","NA","2","legacy","1024","2","48000","-16","experiment","1","odd","present","1634152","1634152","NA","1664333","1542863","1634135","1731989","1732504","1542898","1604477","1614805","1732504","1732989","NA","1731972","Fraction component detection task","69","50786","73","yes","1280"
"94.5945945946","94.5945945946","694.094594595","694.094594595","#808080","no","legacy","legacy","legacy","0","uniform","1","undefined","undefined","undefined","1","a","0","0","0","73","0","0","73","73","0","0","0","73","73","0","73","Tue Apr 24 08:58:50 2018","#000000","high","3","The main experiment item","yes","","experiment.osexp","/Users/tom/github/sft-fraction/procedure","no","mono","no","24","no","white","no","yes","800","legacy","73","73","0","/Users/tom/github/sft-fraction/results/subject-1.csv","legacy","#000000","high","4","Jazzy James","3.1.9","0","a","NA","space","space","space","a","NA","577","NA","61562","10311","19327","577","NA","2","legacy","1024","2","48000","-16","experiment","1","odd","absent","1634152","1634152","NA","1664333","1542863","1634135","1733068","1733584","1542898","1604477","1614805","1733585","1734164","NA","1733054","Fraction component detection task","70","51363","74","yes","1280"
"94.6666666667","94.6666666667","692.293333333","692.293333333","#808080","no","legacy","legacy","legacy","0","uniform","1","undefined","undefined","undefined","1","a","0","0","0","74","0","0","74","74","0","0","0","74","74","0","74","Tue Apr 24 08:58:50 2018","#000000","high","4","The main experiment item","yes","","experiment.osexp","/Users/tom/github/sft-fraction/procedure","no","mono","no","24","no","white","no","yes","800","legacy","74","74","0","/Users/tom/github/sft-fraction/results/subject-1.csv","legacy","#000000","high","4","Jazzy James","3.1.9","0","a","NA","space","space","space","a","NA","559","NA","61562","10311","19327","559","NA","2","legacy","1024","2","48000","-16","experiment","1","odd","absent","1634152","1634152","NA","1664333","1542863","1634135","1734246","1734762","1542898","1604477","1614805","1734763","1735324","NA","1734232","Fraction component detection task","71","51922","75","yes","1280"
"94.7368421053","94.7368421053","691.263157895","691.263157895","#808080","no","legacy","legacy","legacy","0","uniform","1","undefined","undefined","undefined","1","l","0","0","0","75","0","0","75","75","0","0","0","75","75","0","75","Tue Apr 24 08:58:50 2018","#000000","high","4","The main experiment item","yes","","experiment.osexp","/Users/tom/github/sft-fraction/procedure","no","mono","no","24","no","white","no","yes","800","legacy","75","75","0","/Users/tom/github/sft-fraction/results/subject-1.csv","legacy","#757575","low","7","Jazzy James","3.1.9","0","l","NA","space","space","space","l","NA","614","NA","61562","10311","19327","614","NA","2","legacy","1024","2","48000","-16","experiment","1","odd","present","1634152","1634152","NA","1664333","1542863","1634135","1735410","1735925","1542898","1604477","1614805","1735925","1736541","NA","1735395","Fraction component detection task","72","52536","76","yes","1280"
"94.8051948052","94.8051948052","689.376623377","689.376623377","#808080","no","legacy","legacy","legacy","0","uniform","1","undefined","undefined","undefined","1","a","0","0","0","76","0","0","76","76","0","0","0","76","76","0","76","Tue Apr 24 08:58:50 2018","#757575","low","2","The main experiment item","yes","","experiment.osexp","/Users/tom/github/sft-fraction/procedure","no","mono","no","24","no","white","no","yes","800","legacy","76","76","0","/Users/tom/github/sft-fraction/results/subject-1.csv","legacy","#757575","low","3","Jazzy James","3.1.9","0","a","NA","space","space","space","a","NA","546","NA","61562","10311","19327","546","NA","2","legacy","1024","2","48000","-16","experiment","1","odd","absent","1634152","1634152","NA","1664333","1542863","1634135","1736622","1737137","1542898","1604477","1614805","1737137","1737685","NA","1736607","Fraction component detection task","73","53082","77","yes","1280"
"94.8717948718","94.8717948718","685.846153846","685.846153846","#808080","no","legacy","legacy","legacy","0","uniform","1","undefined","undefined","undefined","1","l","0","0","0","77","0","0","77","77","0","0","0","77","77","0","77","Tue Apr 24 08:58:50 2018","#000000","high","8","The main experiment item","yes","","experiment.osexp","/Users/tom/github/sft-fraction/procedure","no","mono","no","24","no","white","no","yes","800","legacy","77","77","0","/Users/tom/github/sft-fraction/results/subject-1.csv","legacy","#000000","high","7","Jazzy James","3.1.9","0","l","NA","space","space","space","l","NA","414","NA","61562","10311","19327","414","NA","2","legacy","1024","2","48000","-16","experiment","1","odd","present","1634152","1634152","NA","1664333","1542863","1634135","1737770","1738285","1542898","1604477","1614805","1738285","1738702","NA","1737755","Fraction component detection task","74","53496","78","yes","1280"
"94.9367088608","94.9367088608","686.164556962","686.164556962","#808080","no","legacy","legacy","legacy","0","uniform","1","undefined","undefined","undefined","1","l","0","0","0","78","0","0","78","78","0","0","0","78","78","0","78","Tue Apr 24 08:58:50 2018","#757575","low","7","The main experiment item","yes","","experiment.osexp","/Users/tom/github/sft-fraction/procedure","no","mono","no","24","no","white","no","yes","800","legacy","78","78","0","/Users/tom/github/sft-fraction/results/subject-1.csv","legacy","#000000","high","2","Jazzy James","3.1.9","0","l","NA","space","space","space","l","NA","711","NA","61562","10311","19327","711","NA","2","legacy","1024","2","48000","-16","experiment","1","odd","present","1634152","1634152","NA","1664333","1542863","1634135","1738784","1739299","1542898","1604477","1614805","1739299","1740013","NA","1738769","Fraction component detection task","75","54207","79","yes","1280"
"95","95","683.675","683.675","#808080","no","legacy","legacy","legacy","0","uniform","1","undefined","undefined","undefined","1","l","0","0","0","79","0","0","79","79","0","0","0","79","79","0","79","Tue Apr 24 08:58:50 2018","#000000","high","2","The main experiment item","yes","","experiment.osexp","/Users/tom/github/sft-fraction/procedure","no","mono","no","24","no","white","no","yes","800","legacy","79","79","0","/Users/tom/github/sft-fraction/results/subject-1.csv","legacy","#000000","high","7","Jazzy James","3.1.9","0","l","NA","space","space","space","l","NA","487","NA","61562","10311","19327","487","NA","2","legacy","1024","2","48000","-16","experiment","1","odd","present","1634152","1634152","NA","1664333","1542863","1634135","1740092","1740611","1542898","1604477","1614805","1740611","1741101","NA","1740077","Fraction component detection task","76","54694","80","yes","1280"
"95.0617283951","95.0617283951","682.061728395","682.061728395","#808080","no","legacy","legacy","legacy","0","uniform","1","undefined","undefined","undefined","1","a","0","0","0","80","0","0","80","80","0","0","0","80","80","0","80","Tue Apr 24 08:58:50 2018","#757575","low","3","The main experiment item","yes","","experiment.osexp","/Users/tom/github/sft-fraction/procedure","no","mono","no","24","no","white","no","yes","800","legacy","80","80","0","/Users/tom/github/sft-fraction/results/subject-1.csv","legacy","#757575","low","4","Jazzy James","3.1.9","0","a","NA","space","space","space","a","NA","553","NA","61562","10311","19327","553","NA","2","legacy","1024","2","48000","-16","experiment","1","odd","absent","1634152","1634152","NA","1664333","1542863","1634135","1741190","1741705","1542898","1604477","1614805","1741705","1742260","NA","1741171","Fraction component detection task","77","55247","81","yes","1280"
"95.1219512195","95.1219512195","679.829268293","679.829268293","#808080","no","legacy","legacy","legacy","0","uniform","1","undefined","undefined","undefined","1","l","0","0","0","81","0","0","81","81","0","0","0","81","81","0","81","Tue Apr 24 08:58:50 2018","#000000","high","6","The main experiment item","yes","","experiment.osexp","/Users/tom/github/sft-fraction/procedure","no","mono","no","24","no","white","no","yes","800","legacy","81","81","0","/Users/tom/github/sft-fraction/results/subject-1.csv","legacy","#757575","low","3","Jazzy James","3.1.9","0","l","NA","space","space","space","l","NA","499","NA","61562","10311","19327","499","NA","2","legacy","1024","2","48000","-16","experiment","1","odd","present","1634152","1634152","NA","1664333","1542863","1634135","1742339","1742855","1542898","1604477","1614805","1742855","1743357","NA","1742325","Fraction component detection task","78","55746","82","yes","1280"
"95.1807228916","95.1807228916","677.13253012","677.13253012","#808080","no","legacy","legacy","legacy","0","uniform","1","undefined","undefined","undefined","1","a","0","0","0","82","0","0","82","82","0","0","0","82","82","0","82","Tue Apr 24 08:58:50 2018","#000000","high","4","The main experiment item","yes","","experiment.osexp","/Users/tom/github/sft-fraction/procedure","no","mono","no","24","no","white","no","yes","800","legacy","82","82","0","/Users/tom/github/sft-fraction/results/subject-1.csv","legacy","#000000","high","3","Jazzy James","3.1.9","0","a","NA","space","space","space","a","NA","456","NA","61562","10311","19327","456","NA","2","legacy","1024","2","48000","-16","experiment","1","odd","absent","1634152","1634152","NA","1664333","1542863","1634135","1743439","1743954","1542898","1604477","1614805","1743955","1744414","NA","1743423","Fraction component detection task","79","56202","83","yes","1280"
"95.2380952381","95.2380952381","674.44047619","674.44047619","#808080","no","legacy","legacy","legacy","0","uniform","1","undefined","undefined","undefined","1","a","0","0","0","83","0","0","83","83","0","0","0","83","83","0","83","Tue Apr 24 08:58:50 2018","#000000","high","2","The main experiment item","yes","","experiment.osexp","/Users/tom/github/sft-fraction/procedure","no","mono","no","24","no","white","no","yes","800","legacy","83","83","0","/Users/tom/github/sft-fraction/results/subject-1.csv","legacy","#757575","low","3","Jazzy James","3.1.9","0","a","NA","space","space","space","a","NA","451","NA","61562","10311","19327","451","NA","2","legacy","1024","2","48000","-16","experiment","1","odd","absent","1634152","1634152","NA","1664333","1542863","1634135","1744500","1745016","1542898","1604477","1614805","1745016","1745470","NA","1744484","Fraction component detection task","80","56653","84","yes","1280"
"95.2941176471","95.2941176471","671.894117647","671.894117647","#808080","no","legacy","legacy","legacy","0","uniform","1","undefined","undefined","undefined","1","l","0","0","0","84","0","0","84","84","0","0","0","84","84","0","84","Tue Apr 24 08:58:50 2018","#757575","low","8","The main experiment item","yes","","experiment.osexp","/Users/tom/github/sft-fraction/procedure","no","mono","no","24","no","white","no","yes","800","legacy","84","84","0","/Users/tom/github/sft-fraction/results/subject-1.csv","legacy","#000000","high","8","Jazzy James","3.1.9","0","l","NA","space","space","space","l","NA","458","NA","61562","10311","19327","458","NA","2","legacy","1024","2","48000","-16","experiment","1","odd","present","1634152","1634152","NA","1664333","1542863","1634135","1745549","1746065","1542898","1604477","1614805","1746065","1746526","NA","1745534","Fraction component detection task","81","57111","85","yes","1280"
"95.3488372093","95.3488372093","669.337209302","669.337209302","#808080","no","legacy","legacy","legacy","0","uniform","1","undefined","undefined","undefined","1","l","0","0","0","85","0","0","85","85","0","0","0","85","85","0","85","Tue Apr 24 08:58:50 2018","#757575","low","7","The main experiment item","yes","","experiment.osexp","/Users/tom/github/sft-fraction/procedure","no","mono","no","24","no","white","no","yes","800","legacy","85","85","0","/Users/tom/github/sft-fraction/results/subject-1.csv","legacy","#757575","low","3","Jazzy James","3.1.9","0","l","NA","space","space","space","l","NA","452","NA","61562","10311","19327","452","NA","2","legacy","1024","2","48000","-16","experiment","1","odd","present","1634152","1634152","NA","1664333","1542863","1634135","1746609","1747127","1542898","1604477","1614805","1747127","1747583","NA","1746593","Fraction component detection task","82","57563","86","yes","1280"
"95.4022988506","95.4022988506","667.275862069","667.275862069","#808080","no","legacy","legacy","legacy","0","uniform","1","undefined","undefined","undefined","1","a","0","0","0","86","0","0","86","86","0","0","0","86","86","0","86","Tue Apr 24 08:58:50 2018","#757575","low","4","The main experiment item","yes","","experiment.osexp","/Users/tom/github/sft-fraction/procedure","no","mono","no","24","no","white","no","yes","800","legacy","86","86","0","/Users/tom/github/sft-fraction/results/subject-1.csv","legacy","#000000","high","3","Jazzy James","3.1.9","0","a","NA","space","space","space","a","NA","490","NA","61562","10311","19327","490","NA","2","legacy","1024","2","48000","-16","experiment","1","odd","absent","1634152","1634152","NA","1664333","1542863","1634135","1747661","1748177","1542898","1604477","1614805","1748177","1748670","NA","1747647","Fraction component detection task","83","58053","87","yes","1280"
"95.4545454545","95.4545454545","664.613636364","664.613636364","#808080","no","legacy","legacy","legacy","0","uniform","1","undefined","undefined","undefined","1","l","0","0","0","87","0","0","87","87","0","0","0","87","87","0","87","Tue Apr 24 08:58:50 2018","#000000","high","3","The main experiment item","yes","","experiment.osexp","/Users/tom/github/sft-fraction/procedure","no","mono","no","24","no","white","no","yes","800","legacy","87","87","0","/Users/tom/github/sft-fraction/results/subject-1.csv","legacy","#000000","high","8","Jazzy James","3.1.9","0","l","NA","space","space","space","l","NA","433","NA","61562","10311","19327","433","NA","2","legacy","1024","2","48000","-16","experiment","1","odd","present","1634152","1634152","NA","1664333","1542863","1634135","1748759","1749274","1542898","1604477","1614805","1749274","1749710","NA","1748741","Fraction component detection task","84","58486","88","yes","1280"
"95.5056179775","95.5056179775","662.831460674","662.831460674","#808080","no","legacy","legacy","legacy","0","uniform","1","undefined","undefined","undefined","1","l","0","0","0","88","0","0","88","88","0","0","0","88","88","0","88","Tue Apr 24 08:58:50 2018","#000000","high","3","The main experiment item","yes","","experiment.osexp","/Users/tom/github/sft-fraction/procedure","no","mono","no","24","no","white","no","yes","800","legacy","88","88","0","/Users/tom/github/sft-fraction/results/subject-1.csv","legacy","#757575","low","6","Jazzy James","3.1.9","0","l","NA","space","space","space","l","NA","506","NA","61562","10311","19327","506","NA","2","legacy","1024","2","48000","-16","experiment","1","odd","present","1634152","1634152","NA","1664333","1542863","1634135","1749790","1750306","1542898","1604477","1614805","1750306","1750815","NA","1749776","Fraction component detection task","85","58992","89","yes","1280"
"95.5555555556","95.5555555556","660.333333333","660.333333333","#808080","no","legacy","legacy","legacy","0","uniform","1","undefined","undefined","undefined","1","a","0","0","0","89","0","0","89","89","0","0","0","89","89","0","89","Tue Apr 24 08:58:50 2018","#757575","low","2","The main experiment item","yes","","experiment.osexp","/Users/tom/github/sft-fraction/procedure","no","mono","no","24","no","white","no","yes","800","legacy","89","89","0","/Users/tom/github/sft-fraction/results/subject-1.csv","legacy","#000000","high","4","Jazzy James","3.1.9","0","a","NA","space","space","space","a","NA","438","NA","61562","10311","19327","438","NA","2","legacy","1024","2","48000","-16","experiment","1","odd","absent","1634152","1634152","NA","1664333","1542863","1634135","1750897","1751412","1542898","1604477","1614805","1751413","1751854","NA","1750882","Fraction component detection task","86","59430","90","yes","1280"
"94.5054945055","94.5054945055","658.472527473","658.472527473","#808080","no","legacy","legacy","legacy","0","uniform","0","undefined","undefined","undefined","0","a","0","0","0","90","0","0","90","90","0","0","0","90","90","0","90","Tue Apr 24 08:58:50 2018","#000000","high","3","The main experiment item","yes","","experiment.osexp","/Users/tom/github/sft-fraction/procedure","no","mono","no","24","no","white","no","yes","800","legacy","90","90","0","/Users/tom/github/sft-fraction/results/subject-1.csv","legacy","#000000","high","3","Jazzy James","3.1.9","0","l","NA","space","space","space","l","NA","491","NA","61562","10311","19327","491","NA","2","legacy","1024","2","48000","-16","experiment","1","odd","absent","1634152","1634152","NA","1664333","1542863","1634135","1751939","1752456","1542898","1604477","1614805","1752457","1752950","NA","1751920","Fraction component detection task","86","59921","91","yes","1280"
"94.5652173913","94.5652173913","657.097826087","657.097826087","#808080","no","legacy","legacy","legacy","0","uniform","1","undefined","undefined","undefined","1","a","0","0","0","91","0","0","91","91","0","0","0","91","91","0","91","Tue Apr 24 08:58:50 2018","#000000","high","3","The main experiment item","yes","","experiment.osexp","/Users/tom/github/sft-fraction/procedure","no","mono","no","24","no","white","no","yes","800","legacy","91","91","0","/Users/tom/github/sft-fraction/results/subject-1.csv","legacy","#000000","high","3","Jazzy James","3.1.9","0","a","NA","space","space","space","a","NA","532","NA","61562","10311","19327","532","NA","2","legacy","1024","2","48000","-16","experiment","1","odd","absent","1634152","1634152","NA","1752972","1542863","1634135","1754052","1754567","1542898","1604477","1614805","1754567","1755101","NA","1754036","Fraction component detection task","87","60453","92","yes","1280"
"94.623655914","94.623655914","655.623655914","655.623655914","#808080","no","legacy","legacy","legacy","0","uniform","1","undefined","undefined","undefined","1","l","0","0","0","92","0","0","92","92","0","0","0","92","92","0","92","Tue Apr 24 08:58:50 2018","#000000","high","8","The main experiment item","yes","","experiment.osexp","/Users/tom/github/sft-fraction/procedure","no","mono","no","24","no","white","no","yes","800","legacy","92","92","0","/Users/tom/github/sft-fraction/results/subject-1.csv","legacy","#757575","low","7","Jazzy James","3.1.9","0","l","NA","space","space","space","l","NA","520","NA","61562","10311","19327","520","NA","2","legacy","1024","2","48000","-16","experiment","1","odd","present","1634152","1634152","NA","1752972","1542863","1634135","1755191","1755706","1542898","1604477","1614805","1755707","1756230","NA","1755172","Fraction component detection task","88","60973","93","yes","1280"
"94.6808510638","94.6808510638","654.819148936","654.819148936","#808080","no","legacy","legacy","legacy","0","uniform","1","undefined","undefined","undefined","1","a","0","0","0","93","0","0","93","93","0","0","0","93","93","0","93","Tue Apr 24 08:58:50 2018","#757575","low","3","The main experiment item","yes","","experiment.osexp","/Users/tom/github/sft-fraction/procedure","no","mono","no","24","no","white","no","yes","800","legacy","93","93","0","/Users/tom/github/sft-fraction/results/subject-1.csv","legacy","#000000","high","4","Jazzy James","3.1.9","0","a","NA","space","space","space","a","NA","580","NA","61562","10311","19327","580","NA","2","legacy","1024","2","48000","-16","experiment","1","odd","absent","1634152","1634152","NA","1752972","1542863","1634135","1756316","1756832","1542898","1604477","1614805","1756832","1757414","NA","1756296","Fraction component detection task","89","61553","94","yes","1280"
"94.7368421053","94.7368421053","653.494736842","653.494736842","#808080","no","legacy","legacy","legacy","0","uniform","1","undefined","undefined","undefined","1","a","0","0","0","94","0","0","94","94","0","0","0","94","94","0","94","Tue Apr 24 08:58:50 2018","#000000","high","4","The main experiment item","yes","","experiment.osexp","/Users/tom/github/sft-fraction/procedure","no","mono","no","24","no","white","no","yes","800","legacy","94","94","0","/Users/tom/github/sft-fraction/results/subject-1.csv","legacy","#757575","low","4","Jazzy James","3.1.9","0","a","NA","space","space","space","a","NA","529","NA","61562","10311","19327","529","NA","2","legacy","1024","2","48000","-16","experiment","1","odd","absent","1634152","1634152","NA","1752972","1542863","1634135","1757496","1758011","1542898","1604477","1614805","1758011","1758543","NA","1757482","Fraction component detection task","90","62082","95","yes","1280"
"94.7916666667","94.7916666667","652.65625","652.65625","#808080","no","legacy","legacy","legacy","0","uniform","1","undefined","undefined","undefined","1","a","0","0","0","95","0","0","95","95","0","0","0","95","95","0","95","Tue Apr 24 08:58:50 2018","#757575","low","4","The main experiment item","yes","","experiment.osexp","/Users/tom/github/sft-fraction/procedure","no","mono","no","24","no","white","no","yes","800","legacy","95","95","0","/Users/tom/github/sft-fraction/results/subject-1.csv","legacy","#757575","low","3","Jazzy James","3.1.9","0","a","NA","space","space","space","a","NA","573","NA","61562","10311","19327","573","NA","2","legacy","1024","2","48000","-16","experiment","1","odd","absent","1634152","1634152","NA","1752972","1542863","1634135","1758626","1759142","1542898","1604477","1614805","1759143","1759719","NA","1758607","Fraction component detection task","91","62655","96","yes","1280"
"94.8453608247","94.8453608247","650.824742268","650.824742268","#808080","no","legacy","legacy","legacy","0","uniform","1","undefined","undefined","undefined","1","a","0","0","0","96","0","0","96","96","0","0","0","96","96","0","96","Tue Apr 24 08:58:50 2018","#000000","high","2","The main experiment item","yes","","experiment.osexp","/Users/tom/github/sft-fraction/procedure","no","mono","no","24","no","white","no","yes","800","legacy","96","96","0","/Users/tom/github/sft-fraction/results/subject-1.csv","legacy","#757575","low","3","Jazzy James","3.1.9","0","a","NA","space","space","space","a","NA","475","NA","61562","10311","19327","475","NA","2","legacy","1024","2","48000","-16","experiment","1","odd","absent","1634152","1634152","NA","1752972","1542863","1634135","1759805","1760320","1542898","1604477","1614805","1760321","1760799","NA","1759786","Fraction component detection task","92","63130","97","yes","1280"
"94.8979591837","94.8979591837","649.755102041","649.755102041","#808080","no","legacy","legacy","legacy","0","uniform","1","undefined","undefined","undefined","1","l","0","0","0","97","0","0","97","97","0","0","0","97","97","0","97","Tue Apr 24 08:58:50 2018","#000000","high","4","The main experiment item","yes","","experiment.osexp","/Users/tom/github/sft-fraction/procedure","no","mono","no","24","no","white","no","yes","800","legacy","97","97","0","/Users/tom/github/sft-fraction/results/subject-1.csv","legacy","#757575","low","6","Jazzy James","3.1.9","0","l","NA","space","space","space","l","NA","546","NA","61562","10311","19327","546","NA","2","legacy","1024","2","48000","-16","experiment","1","odd","present","1634152","1634152","NA","1752972","1542863","1634135","1760886","1761402","1542898","1604477","1614805","1761402","1761951","NA","1760871","Fraction component detection task","93","63676","98","yes","1280"
"94.9494949495","94.9494949495","649.060606061","649.060606061","#808080","no","legacy","legacy","legacy","0","uniform","1","undefined","undefined","undefined","1","a","0","0","0","98","0","0","98","98","0","0","0","98","98","0","98","Tue Apr 24 08:58:50 2018","#757575","low","3","The main experiment item","yes","","experiment.osexp","/Users/tom/github/sft-fraction/procedure","no","mono","no","24","no","white","no","yes","800","legacy","98","98","0","/Users/tom/github/sft-fraction/results/subject-1.csv","legacy","#757575","low","2","Jazzy James","3.1.9","0","a","NA","space","space","space","a","NA","581","NA","61562","10311","19327","581","NA","2","legacy","1024","2","48000","-16","experiment","1","odd","absent","1634152","1634152","NA","1752972","1542863","1634135","1762034","1762550","1542898","1604477","1614805","1762550","1763135","NA","1762020","Fraction component detection task","94","64257","99","yes","1280"
"95","95","647.19","647.19","#808080","no","legacy","legacy","legacy","0","uniform","1","undefined","undefined","undefined","1","a","0","0","0","99","0","0","99","99","0","0","0","99","99","0","99","Tue Apr 24 08:58:50 2018","#000000","high","3","The main experiment item","yes","","experiment.osexp","/Users/tom/github/sft-fraction/procedure","no","mono","no","24","no","white","no","yes","800","legacy","99","99","0","/Users/tom/github/sft-fraction/results/subject-1.csv","legacy","#757575","low","4","Jazzy James","3.1.9","0","a","NA","space","space","space","a","NA","462","NA","61562","10311","19327","462","NA","2","legacy","1024","2","48000","-16","experiment","1","odd","absent","1634152","1634152","NA","1752972","1542863","1634135","1763218","1763733","1542898","1604477","1614805","1763733","1764198","NA","1763202","Fraction component detection task","95","64719","100","yes","1280"
"95.0495049505","95.0495049505","644.742574257","644.742574257","#808080","no","legacy","legacy","legacy","0","uniform","1","undefined","undefined","undefined","1","l","0","0","0","100","0","0","100","100","0","0","0","100","100","0","100","Tue Apr 24 08:58:50 2018","#757575","low","3","The main experiment item","yes","","experiment.osexp","/Users/tom/github/sft-fraction/procedure","no","mono","no","24","no","white","no","yes","800","legacy","100","100","0","/Users/tom/github/sft-fraction/results/subject-1.csv","legacy","#757575","low","6","Jazzy James","3.1.9","0","l","NA","space","space","space","l","NA","400","NA","61562","10311","19327","400","NA","2","legacy","1024","2","48000","-16","experiment","1","odd","present","1634152","1634152","NA","1752972","1542863","1634135","1764287","1764802","1542898","1604477","1614805","1764803","1765206","NA","1764268","Fraction component detection task","96","65119","101","yes","1280"
"95.0980392157","95.0980392157","642.745098039","642.745098039","#808080","no","legacy","legacy","legacy","0","uniform","1","undefined","undefined","undefined","1","a","0","0","0","101","0","0","101","101","0","0","0","101","101","0","101","Tue Apr 24 08:58:50 2018","#757575","low","2","The main experiment item","yes","","experiment.osexp","/Users/tom/github/sft-fraction/procedure","no","mono","no","24","no","white","no","yes","800","legacy","101","101","0","/Users/tom/github/sft-fraction/results/subject-1.csv","legacy","#000000","high","2","Jazzy James","3.1.9","0","a","NA","space","space","space","a","NA","441","NA","61562","10311","19327","441","NA","2","legacy","1024","2","48000","-16","experiment","1","odd","absent","1634152","1634152","NA","1752972","1542863","1634135","1765295","1765810","1542898","1604477","1614805","1765810","1766254","NA","1765276","Fraction component detection task","97","65560","102","yes","1280"
"95.145631068","95.145631068","641.902912621","641.902912621","#808080","no","legacy","legacy","legacy","0","uniform","1","undefined","undefined","undefined","1","l","0","0","0","102","0","0","102","102","0","0","0","102","102","0","102","Tue Apr 24 08:58:50 2018","#000000","high","7","The main experiment item","yes","","experiment.osexp","/Users/tom/github/sft-fraction/procedure","no","mono","no","24","no","white","no","yes","800","legacy","102","102","0","/Users/tom/github/sft-fraction/results/subject-1.csv","legacy","#000000","high","8","Jazzy James","3.1.9","0","l","NA","space","space","space","l","NA","556","NA","61562","10311","19327","556","NA","2","legacy","1024","2","48000","-16","experiment","1","odd","present","1634152","1634152","NA","1752972","1542863","1634135","1766340","1766856","1542898","1604477","1614805","1766856","1767416","NA","1766321","Fraction component detection task","98","66116","103","yes","1280"
"95.1923076923","95.1923076923","640.240384615","640.240384615","#808080","no","legacy","legacy","legacy","0","uniform","1","undefined","undefined","undefined","1","a","0","0","0","103","0","0","103","103","0","0","0","103","103","0","103","Tue Apr 24 08:58:50 2018","#000000","high","2","The main experiment item","yes","","experiment.osexp","/Users/tom/github/sft-fraction/procedure","no","mono","no","24","no","white","no","yes","800","legacy","103","103","0","/Users/tom/github/sft-fraction/results/subject-1.csv","legacy","#757575","low","2","Jazzy James","3.1.9","0","a","NA","space","space","space","a","NA","469","NA","61562","10311","19327","469","NA","2","legacy","1024","2","48000","-16","experiment","1","odd","absent","1634152","1634152","NA","1752972","1542863","1634135","1767501","1768016","1542898","1604477","1614805","1768016","1768488","NA","1767482","Fraction component detection task","99","66585","104","yes","1280"
"95.2380952381","95.2380952381","639.523809524","639.523809524","#808080","no","legacy","legacy","legacy","0","uniform","1","undefined","undefined","undefined","1","a","0","0","0","104","0","0","104","104","0","0","0","104","104","0","104","Tue Apr 24 08:58:50 2018","#757575","low","4","The main experiment item","yes","","experiment.osexp","/Users/tom/github/sft-fraction/procedure","no","mono","no","24","no","white","no","yes","800","legacy","104","104","0","/Users/tom/github/sft-fraction/results/subject-1.csv","legacy","#000000","high","3","Jazzy James","3.1.9","0","a","NA","space","space","space","a","NA","565","NA","61562","10311","19327","565","NA","2","legacy","1024","2","48000","-16","experiment","1","odd","absent","1634152","1634152","NA","1752972","1542863","1634135","1768570","1769087","1542898","1604477","1614805","1769087","1769655","NA","1768554","Fraction component detection task","100","67150","105","yes","1280"
"95.2830188679","95.2830188679","638.820754717","638.820754717","#808080","no","legacy","legacy","legacy","0","uniform","1","undefined","undefined","undefined","1","a","0","0","0","105","0","0","105","105","0","0","0","105","105","0","105","Tue Apr 24 08:58:50 2018","#000000","high","4","The main experiment item","yes","","experiment.osexp","/Users/tom/github/sft-fraction/procedure","no","mono","no","24","no","white","no","yes","800","legacy","105","105","0","/Users/tom/github/sft-fraction/results/subject-1.csv","legacy","#757575","low","2","Jazzy James","3.1.9","0","a","NA","space","space","space","a","NA","565","NA","61562","10311","19327","565","NA","2","legacy","1024","2","48000","-16","experiment","1","odd","absent","1634152","1634152","NA","1752972","1542863","1634135","1769741","1770256","1542898","1604477","1614805","1770256","1770826","NA","1769723","Fraction component detection task","101","67715","106","yes","1280"
