"acc","accuracy","average_response_time","avg_rt","background","bidi","canvas_backend","clock_backend","color_backend","compensation","coordinates","correct","correct_instructions1","correct_instructions2","correct_instructions3","correct_keyboard_response","correct_response","count_block_loop","count_block_sequence","count_end_of_experiment","count_error","count_experiment","count_experimental_loop","count_fixation_dot","count_fraction","count_instructions1","count_instructions2","count_instructions3","count_keyboard_response","count_logger","count_rest","count_trial_sequence","datetime","denomColor","denomSalience","denominator","description","disable_garbage_collection","empty_column","experiment_file","experiment_path","font_bold","font_family","font_italic","font_size","font_underline","foreground","form_clicks","fullscreen","height","keyboard_backend","live_row","live_row_block_loop","live_row_experimental_loop","logfile","mouse_backend","numColor","numSalience","numerator","opensesame_codename","opensesame_version","repeat_cycle","response","response_end_of_experiment","response_instructions1","response_instructions2","response_instructions3","response_keyboard_response","response_rest","response_time","response_time_end_of_experiment","response_time_instructions1","response_time_instructions2","response_time_instructions3","response_time_keyboard_response","response_time_rest","round_decimals","sampler_backend","sound_buf_size","sound_channels","sound_freq","sound_sample_size","start","subject_nr","subject_parity","target","time_block_loop","time_block_sequence","time_end_of_experiment","time_error","time_experiment","time_experimental_loop","time_fixation_dot","time_fraction","time_instructions1","time_instructions2","time_instructions3","time_keyboard_response","time_logger","time_rest","time_trial_sequence","title","total_correct","total_response_time","total_responses","uniform_coordinates","width"
"100","100","1455","1455","#808080","no","legacy","legacy","legacy","0","uniform","1","undefined","undefined","undefined","1","a","0","0","0","0","0","0","0","0","0","0","0","0","0","0","0","Fri Apr 27 10:53:54 2018","#757575","low","4","The main experiment item","yes","","experiment.osexp","/Users/tom/github/sft-fraction/procedure","no","mono","no","24","no","white","no","yes","800","legacy","0","0","0","/Users/tom/github/sft-fraction/results/data/subject-3b.csv","legacy","#757575","low","3","Jazzy James","3.1.9","0","a","NA","space","space","space","a","NA","1455","NA","121132","3422","12532","1455","NA","2","legacy","1024","2","48000","-16","experiment","3","odd","absent","138525","138525","NA","NA","1355","138509","138578","139100","1383","122533","125975","139100","140557","NA","138557","Fraction component detection task","1","1455","1","yes","1280"
"100","100","981.5","981.5","#808080","no","legacy","legacy","legacy","0","uniform","1","undefined","undefined","undefined","1","l","0","0","0","1","0","0","1","1","0","0","0","1","1","0","1","Fri Apr 27 10:53:54 2018","#757575","low","6","The main experiment item","yes","","experiment.osexp","/Users/tom/github/sft-fraction/procedure","no","mono","no","24","no","white","no","yes","800","legacy","1","1","0","/Users/tom/github/sft-fraction/results/data/subject-3b.csv","legacy","#000000","high","4","Jazzy James","3.1.9","0","l","NA","space","space","space","l","NA","508","NA","121132","3422","12532","508","NA","2","legacy","1024","2","48000","-16","experiment","3","odd","present","138525","138525","NA","NA","1355","138509","140650","141167","1383","122533","125975","141167","141682","NA","140635","Fraction component detection task","2","1963","2","yes","1280"
"100","100","828.666666667","828.666666667","#808080","no","legacy","legacy","legacy","0","uniform","1","undefined","undefined","undefined","1","l","0","0","0","2","0","0","2","2","0","0","0","2","2","0","2","Fri Apr 27 10:53:54 2018","#000000","high","8","The main experiment item","yes","","experiment.osexp","/Users/tom/github/sft-fraction/procedure","no","mono","no","24","no","white","no","yes","800","legacy","2","2","0","/Users/tom/github/sft-fraction/results/data/subject-3b.csv","legacy","#757575","low","3","Jazzy James","3.1.9","0","l","NA","space","space","space","l","NA","523","NA","121132","3422","12532","523","NA","2","legacy","1024","2","48000","-16","experiment","3","odd","present","138525","138525","NA","NA","1355","138509","141771","142288","1383","122533","125975","142288","142814","NA","141754","Fraction component detection task","3","2486","3","yes","1280"
"100","100","742.25","742.25","#808080","no","legacy","legacy","legacy","0","uniform","1","undefined","undefined","undefined","1","a","0","0","0","3","0","0","3","3","0","0","0","3","3","0","3","Fri Apr 27 10:53:54 2018","#757575","low","2","The main experiment item","yes","","experiment.osexp","/Users/tom/github/sft-fraction/procedure","no","mono","no","24","no","white","no","yes","800","legacy","3","3","0","/Users/tom/github/sft-fraction/results/data/subject-3b.csv","legacy","#000000","high","2","Jazzy James","3.1.9","0","a","NA","space","space","space","a","NA","483","NA","121132","3422","12532","483","NA","2","legacy","1024","2","48000","-16","experiment","3","odd","absent","138525","138525","NA","NA","1355","138509","142895","143416","1383","122533","125975","143416","143901","NA","142879","Fraction component detection task","4","2969","4","yes","1280"
"100","100","694.8","694.8","#808080","no","legacy","legacy","legacy","0","uniform","1","undefined","undefined","undefined","1","l","0","0","0","4","0","0","4","4","0","0","0","4","4","0","4","Fri Apr 27 10:53:54 2018","#757575","low","8","The main experiment item","yes","","experiment.osexp","/Users/tom/github/sft-fraction/procedure","no","mono","no","24","no","white","no","yes","800","legacy","4","4","0","/Users/tom/github/sft-fraction/results/data/subject-3b.csv","legacy","#000000","high","7","Jazzy James","3.1.9","0","l","NA","space","space","space","l","NA","505","NA","121132","3422","12532","505","NA","2","legacy","1024","2","48000","-16","experiment","3","odd","present","138525","138525","NA","NA","1355","138509","143981","144498","1383","122533","125975","144498","145004","NA","143964","Fraction component detection task","5","3474","5","yes","1280"
"100","100","699.666666667","699.666666667","#808080","no","legacy","legacy","legacy","0","uniform","1","undefined","undefined","undefined","1","l","0","0","0","5","0","0","5","5","0","0","0","5","5","0","5","Fri Apr 27 10:53:54 2018","#757575","low","4","The main experiment item","yes","","experiment.osexp","/Users/tom/github/sft-fraction/procedure","no","mono","no","24","no","white","no","yes","800","legacy","5","5","0","/Users/tom/github/sft-fraction/results/data/subject-3b.csv","legacy","#757575","low","8","Jazzy James","3.1.9","0","l","NA","space","space","space","l","NA","724","NA","121132","3422","12532","724","NA","2","legacy","1024","2","48000","-16","experiment","3","odd","present","138525","138525","NA","NA","1355","138509","145090","145608","1383","122533","125975","145608","146333","NA","145074","Fraction component detection task","6","4198","6","yes","1280"
"100","100","671.428571429","671.428571429","#808080","no","legacy","legacy","legacy","0","uniform","1","undefined","undefined","undefined","1","l","0","0","0","6","0","0","6","6","0","0","0","6","6","0","6","Fri Apr 27 10:53:54 2018","#000000","high","6","The main experiment item","yes","","experiment.osexp","/Users/tom/github/sft-fraction/procedure","no","mono","no","24","no","white","no","yes","800","legacy","6","6","0","/Users/tom/github/sft-fraction/results/data/subject-3b.csv","legacy","#000000","high","8","Jazzy James","3.1.9","0","l","NA","space","space","space","l","NA","502","NA","121132","3422","12532","502","NA","2","legacy","1024","2","48000","-16","experiment","3","odd","present","138525","138525","NA","NA","1355","138509","146417","146934","1383","122533","125975","146934","147437","NA","146398","Fraction component detection task","7","4700","7","yes","1280"
"87.5","87.5","657.125","657.125","#808080","no","legacy","legacy","legacy","0","uniform","0","undefined","undefined","undefined","0","l","0","0","0","7","0","0","7","7","0","0","0","7","7","0","7","Fri Apr 27 10:53:54 2018","#000000","high","6","The main experiment item","yes","","experiment.osexp","/Users/tom/github/sft-fraction/procedure","no","mono","no","24","no","white","no","yes","800","legacy","7","7","0","/Users/tom/github/sft-fraction/results/data/subject-3b.csv","legacy","#000000","high","4","Jazzy James","3.1.9","0","a","NA","space","space","space","a","NA","557","NA","121132","3422","12532","557","NA","2","legacy","1024","2","48000","-16","experiment","3","odd","present","138525","138525","NA","NA","1355","138509","147518","148038","1383","122533","125975","148039","148597","NA","147502","Fraction component detection task","7","5257","8","yes","1280"
"88.8888888889","88.8888888889","646.666666667","646.666666667","#808080","no","legacy","legacy","legacy","0","uniform","1","undefined","undefined","undefined","1","a","0","0","0","8","0","0","8","8","0","0","0","8","8","0","8","Fri Apr 27 10:53:54 2018","#757575","low","3","The main experiment item","yes","","experiment.osexp","/Users/tom/github/sft-fraction/procedure","no","mono","no","24","no","white","no","yes","800","legacy","8","8","0","/Users/tom/github/sft-fraction/results/data/subject-3b.csv","legacy","#757575","low","3","Jazzy James","3.1.9","0","a","NA","space","space","space","a","NA","563","NA","121132","3422","12532","563","NA","2","legacy","1024","2","48000","-16","experiment","3","odd","absent","138525","138525","NA","148616","1355","138509","149704","150225","1383","122533","125975","150225","150790","NA","149684","Fraction component detection task","8","5820","9","yes","1280"
"90","90","640","640","#808080","no","legacy","legacy","legacy","0","uniform","1","undefined","undefined","undefined","1","l","0","0","0","9","0","0","9","9","0","0","0","9","9","0","9","Fri Apr 27 10:53:54 2018","#757575","low","6","The main experiment item","yes","","experiment.osexp","/Users/tom/github/sft-fraction/procedure","no","mono","no","24","no","white","no","yes","800","legacy","9","9","0","/Users/tom/github/sft-fraction/results/data/subject-3b.csv","legacy","#757575","low","2","Jazzy James","3.1.9","0","l","NA","space","space","space","l","NA","580","NA","121132","3422","12532","580","NA","2","legacy","1024","2","48000","-16","experiment","3","odd","present","138525","138525","NA","148616","1355","138509","150871","151391","1383","122533","125975","151392","151973","NA","150856","Fraction component detection task","9","6400","10","yes","1280"
"90.9090909091","90.9090909091","633.636363636","633.636363636","#808080","no","legacy","legacy","legacy","0","uniform","1","undefined","undefined","undefined","1","l","0","0","0","10","0","0","10","10","0","0","0","10","10","0","10","Fri Apr 27 10:53:54 2018","#000000","high","6","The main experiment item","yes","","experiment.osexp","/Users/tom/github/sft-fraction/procedure","no","mono","no","24","no","white","no","yes","800","legacy","10","10","0","/Users/tom/github/sft-fraction/results/data/subject-3b.csv","legacy","#757575","low","2","Jazzy James","3.1.9","0","l","NA","space","space","space","l","NA","570","NA","121132","3422","12532","570","NA","2","legacy","1024","2","48000","-16","experiment","3","odd","present","138525","138525","NA","148616","1355","138509","152061","152578","1383","122533","125975","152578","153150","NA","152041","Fraction component detection task","10","6970","11","yes","1280"
"91.6666666667","91.6666666667","625.166666667","625.166666667","#808080","no","legacy","legacy","legacy","0","uniform","1","undefined","undefined","undefined","1","a","0","0","0","11","0","0","11","11","0","0","0","11","11","0","11","Fri Apr 27 10:53:54 2018","#757575","low","4","The main experiment item","yes","","experiment.osexp","/Users/tom/github/sft-fraction/procedure","no","mono","no","24","no","white","no","yes","800","legacy","11","11","0","/Users/tom/github/sft-fraction/results/data/subject-3b.csv","legacy","#000000","high","4","Jazzy James","3.1.9","0","a","NA","space","space","space","a","NA","532","NA","121132","3422","12532","532","NA","2","legacy","1024","2","48000","-16","experiment","3","odd","absent","138525","138525","NA","148616","1355","138509","153228","153744","1383","122533","125975","153744","154278","NA","153212","Fraction component detection task","11","7502","12","yes","1280"
"92.3076923077","92.3076923077","630.923076923","630.923076923","#808080","no","legacy","legacy","legacy","0","uniform","1","undefined","undefined","undefined","1","a","0","0","0","12","0","0","12","12","0","0","0","12","12","0","12","Fri Apr 27 10:53:54 2018","#757575","low","2","The main experiment item","yes","","experiment.osexp","/Users/tom/github/sft-fraction/procedure","no","mono","no","24","no","white","no","yes","800","legacy","12","12","0","/Users/tom/github/sft-fraction/results/data/subject-3b.csv","legacy","#757575","low","2","Jazzy James","3.1.9","0","a","NA","space","space","space","a","NA","700","NA","121132","3422","12532","700","NA","2","legacy","1024","2","48000","-16","experiment","3","odd","absent","138525","138525","NA","148616","1355","138509","154366","154888","1383","122533","125975","154888","155590","NA","154349","Fraction component detection task","12","8202","13","yes","1280"
"92.8571428571","92.8571428571","623.357142857","623.357142857","#808080","no","legacy","legacy","legacy","0","uniform","1","undefined","undefined","undefined","1","l","0","0","0","13","0","0","13","13","0","0","0","13","13","0","13","Fri Apr 27 10:53:54 2018","#757575","low","8","The main experiment item","yes","","experiment.osexp","/Users/tom/github/sft-fraction/procedure","no","mono","no","24","no","white","no","yes","800","legacy","13","13","0","/Users/tom/github/sft-fraction/results/data/subject-3b.csv","legacy","#000000","high","2","Jazzy James","3.1.9","0","l","NA","space","space","space","l","NA","525","NA","121132","3422","12532","525","NA","2","legacy","1024","2","48000","-16","experiment","3","odd","present","138525","138525","NA","148616","1355","138509","155673","156190","1383","122533","125975","156191","156718","NA","155653","Fraction component detection task","13","8727","14","yes","1280"
"93.3333333333","93.3333333333","621.466666667","621.466666667","#808080","no","legacy","legacy","legacy","0","uniform","1","undefined","undefined","undefined","1","l","0","0","0","14","0","0","14","14","0","0","0","14","14","0","14","Fri Apr 27 10:53:54 2018","#757575","low","7","The main experiment item","yes","","experiment.osexp","/Users/tom/github/sft-fraction/procedure","no","mono","no","24","no","white","no","yes","800","legacy","14","14","0","/Users/tom/github/sft-fraction/results/data/subject-3b.csv","legacy","#757575","low","8","Jazzy James","3.1.9","0","l","NA","space","space","space","l","NA","595","NA","121132","3422","12532","595","NA","2","legacy","1024","2","48000","-16","experiment","3","odd","present","138525","138525","NA","148616","1355","138509","156804","157321","1383","122533","125975","157321","157918","NA","156783","Fraction component detection task","14","9322","15","yes","1280"
"93.75","93.75","614.3125","614.3125","#808080","no","legacy","legacy","legacy","0","uniform","1","undefined","undefined","undefined","1","a","0","0","0","15","0","0","15","15","0","0","0","15","15","0","15","Fri Apr 27 10:53:54 2018","#000000","high","3","The main experiment item","yes","","experiment.osexp","/Users/tom/github/sft-fraction/procedure","no","mono","no","24","no","white","no","yes","800","legacy","15","15","0","/Users/tom/github/sft-fraction/results/data/subject-3b.csv","legacy","#757575","low","4","Jazzy James","3.1.9","0","a","NA","space","space","space","a","NA","507","NA","121132","3422","12532","507","NA","2","legacy","1024","2","48000","-16","experiment","3","odd","absent","138525","138525","NA","148616","1355","138509","158003","158520","1383","122533","125975","158520","159029","NA","157983","Fraction component detection task","15","9829","16","yes","1280"
"94.1176470588","94.1176470588","610.058823529","610.058823529","#808080","no","legacy","legacy","legacy","0","uniform","1","undefined","undefined","undefined","1","a","0","0","0","16","0","0","16","16","0","0","0","16","16","0","16","Fri Apr 27 10:53:54 2018","#757575","low","3","The main experiment item","yes","","experiment.osexp","/Users/tom/github/sft-fraction/procedure","no","mono","no","24","no","white","no","yes","800","legacy","16","16","0","/Users/tom/github/sft-fraction/results/data/subject-3b.csv","legacy","#000000","high","4","Jazzy James","3.1.9","0","a","NA","space","space","space","a","NA","542","NA","121132","3422","12532","542","NA","2","legacy","1024","2","48000","-16","experiment","3","odd","absent","138525","138525","NA","148616","1355","138509","159110","159629","1383","122533","125975","159630","160174","NA","159094","Fraction component detection task","16","10371","17","yes","1280"
"94.4444444444","94.4444444444","608.333333333","608.333333333","#808080","no","legacy","legacy","legacy","0","uniform","1","undefined","undefined","undefined","1","a","0","0","0","17","0","0","17","17","0","0","0","17","17","0","17","Fri Apr 27 10:53:54 2018","#000000","high","4","The main experiment item","yes","","experiment.osexp","/Users/tom/github/sft-fraction/procedure","no","mono","no","24","no","white","no","yes","800","legacy","17","17","0","/Users/tom/github/sft-fraction/results/data/subject-3b.csv","legacy","#000000","high","2","Jazzy James","3.1.9","0","a","NA","space","space","space","a","NA","579","NA","121132","3422","12532","579","NA","2","legacy","1024","2","48000","-16","experiment","3","odd","absent","138525","138525","NA","148616","1355","138509","160259","160776","1383","122533","125975","160777","161358","NA","160239","Fraction component detection task","17","10950","18","yes","1280"
"94.7368421053","94.7368421053","602.210526316","602.210526316","#808080","no","legacy","legacy","legacy","0","uniform","1","undefined","undefined","undefined","1","a","0","0","0","18","0","0","18","18","0","0","0","18","18","0","18","Fri Apr 27 10:53:54 2018","#757575","low","2","The main experiment item","yes","","experiment.osexp","/Users/tom/github/sft-fraction/procedure","no","mono","no","24","no","white","no","yes","800","legacy","18","18","0","/Users/tom/github/sft-fraction/results/data/subject-3b.csv","legacy","#757575","low","2","Jazzy James","3.1.9","0","a","NA","space","space","space","a","NA","492","NA","121132","3422","12532","492","NA","2","legacy","1024","2","48000","-16","experiment","3","odd","absent","138525","138525","NA","148616","1355","138509","161451","161967","1383","122533","125975","161968","162462","NA","161430","Fraction component detection task","18","11442","19","yes","1280"
"95","95","590.8","590.8","#808080","no","legacy","legacy","legacy","0","uniform","1","undefined","undefined","undefined","1","l","0","0","0","19","0","0","19","19","0","0","0","19","19","0","19","Fri Apr 27 10:53:54 2018","#000000","high","8","The main experiment item","yes","","experiment.osexp","/Users/tom/github/sft-fraction/procedure","no","mono","no","24","no","white","no","yes","800","legacy","19","19","0","/Users/tom/github/sft-fraction/results/data/subject-3b.csv","legacy","#000000","high","3","Jazzy James","3.1.9","0","l","NA","space","space","space","l","NA","374","NA","121132","3422","12532","374","NA","2","legacy","1024","2","48000","-16","experiment","3","odd","present","138525","138525","NA","148616","1355","138509","162545","163062","1383","122533","125975","163062","163438","NA","162529","Fraction component detection task","19","11816","20","yes","1280"
"95.2380952381","95.2380952381","586.19047619","586.19047619","#808080","no","legacy","legacy","legacy","0","uniform","1","undefined","undefined","undefined","1","a","0","0","0","20","0","0","20","20","0","0","0","20","20","0","20","Fri Apr 27 10:53:54 2018","#000000","high","3","The main experiment item","yes","","experiment.osexp","/Users/tom/github/sft-fraction/procedure","no","mono","no","24","no","white","no","yes","800","legacy","20","20","0","/Users/tom/github/sft-fraction/results/data/subject-3b.csv","legacy","#000000","high","4","Jazzy James","3.1.9","0","a","NA","space","space","space","a","NA","494","NA","121132","3422","12532","494","NA","2","legacy","1024","2","48000","-16","experiment","3","odd","absent","138525","138525","NA","148616","1355","138509","163522","164038","1383","122533","125975","164038","164534","NA","163507","Fraction component detection task","20","12310","21","yes","1280"
"95.4545454545","95.4545454545","583.136363636","583.136363636","#808080","no","legacy","legacy","legacy","0","uniform","1","undefined","undefined","undefined","1","l","0","0","0","21","0","0","21","21","0","0","0","21","21","0","21","Fri Apr 27 10:53:54 2018","#757575","low","8","The main experiment item","yes","","experiment.osexp","/Users/tom/github/sft-fraction/procedure","no","mono","no","24","no","white","no","yes","800","legacy","21","21","0","/Users/tom/github/sft-fraction/results/data/subject-3b.csv","legacy","#000000","high","6","Jazzy James","3.1.9","0","l","NA","space","space","space","l","NA","519","NA","121132","3422","12532","519","NA","2","legacy","1024","2","48000","-16","experiment","3","odd","present","138525","138525","NA","148616","1355","138509","164618","165134","1383","122533","125975","165134","165656","NA","164600","Fraction component detection task","21","12829","22","yes","1280"
"95.652173913","95.652173913","578.913043478","578.913043478","#808080","no","legacy","legacy","legacy","0","uniform","1","undefined","undefined","undefined","1","a","0","0","0","22","0","0","22","22","0","0","0","22","22","0","22","Fri Apr 27 10:53:54 2018","#000000","high","3","The main experiment item","yes","","experiment.osexp","/Users/tom/github/sft-fraction/procedure","no","mono","no","24","no","white","no","yes","800","legacy","22","22","0","/Users/tom/github/sft-fraction/results/data/subject-3b.csv","legacy","#000000","high","2","Jazzy James","3.1.9","0","a","NA","space","space","space","a","NA","486","NA","121132","3422","12532","486","NA","2","legacy","1024","2","48000","-16","experiment","3","odd","absent","138525","138525","NA","148616","1355","138509","165738","166255","1383","122533","125975","166255","166742","NA","165723","Fraction component detection task","22","13315","23","yes","1280"
"91.6666666667","91.6666666667","591.625","591.625","#808080","no","legacy","legacy","legacy","0","uniform","0","undefined","undefined","undefined","0","l","0","0","0","23","0","0","23","23","0","0","0","23","23","0","23","Fri Apr 27 10:53:54 2018","#000000","high","7","The main experiment item","yes","","experiment.osexp","/Users/tom/github/sft-fraction/procedure","no","mono","no","24","no","white","no","yes","800","legacy","23","23","0","/Users/tom/github/sft-fraction/results/data/subject-3b.csv","legacy","#757575","low","2","Jazzy James","3.1.9","0","a","NA","space","space","space","a","NA","884","NA","121132","3422","12532","884","NA","2","legacy","1024","2","48000","-16","experiment","3","odd","present","138525","138525","NA","148616","1355","138509","166824","167345","1383","122533","125975","167345","168231","NA","166808","Fraction component detection task","22","14199","24","yes","1280"
"92","92","591.68","591.68","#808080","no","legacy","legacy","legacy","0","uniform","1","undefined","undefined","undefined","1","l","0","0","0","24","0","0","24","24","0","0","0","24","24","0","24","Fri Apr 27 10:53:54 2018","#757575","low","6","The main experiment item","yes","","experiment.osexp","/Users/tom/github/sft-fraction/procedure","no","mono","no","24","no","white","no","yes","800","legacy","24","24","0","/Users/tom/github/sft-fraction/results/data/subject-3b.csv","legacy","#757575","low","7","Jazzy James","3.1.9","0","l","NA","space","space","space","l","NA","593","NA","121132","3422","12532","593","NA","2","legacy","1024","2","48000","-16","experiment","3","odd","present","138525","138525","NA","168254","1355","138509","169343","169860","1383","122533","125975","169860","170454","NA","169323","Fraction component detection task","23","14792","25","yes","1280"
"92.3076923077","92.3076923077","587.461538462","587.461538462","#808080","no","legacy","legacy","legacy","0","uniform","1","undefined","undefined","undefined","1","l","0","0","0","25","0","0","25","25","0","0","0","25","25","0","25","Fri Apr 27 10:53:54 2018","#000000","high","2","The main experiment item","yes","","experiment.osexp","/Users/tom/github/sft-fraction/procedure","no","mono","no","24","no","white","no","yes","800","legacy","25","25","0","/Users/tom/github/sft-fraction/results/data/subject-3b.csv","legacy","#757575","low","8","Jazzy James","3.1.9","0","l","NA","space","space","space","l","NA","482","NA","121132","3422","12532","482","NA","2","legacy","1024","2","48000","-16","experiment","3","odd","present","138525","138525","NA","168254","1355","138509","170538","171059","1383","122533","125975","171059","171543","NA","170517","Fraction component detection task","24","15274","26","yes","1280"
"92.5925925926","92.5925925926","586.777777778","586.777777778","#808080","no","legacy","legacy","legacy","0","uniform","1","undefined","undefined","undefined","1","a","0","0","0","26","0","0","26","26","0","0","0","26","26","0","26","Fri Apr 27 10:53:54 2018","#000000","high","2","The main experiment item","yes","","experiment.osexp","/Users/tom/github/sft-fraction/procedure","no","mono","no","24","no","white","no","yes","800","legacy","26","26","0","/Users/tom/github/sft-fraction/results/data/subject-3b.csv","legacy","#757575","low","2","Jazzy James","3.1.9","0","a","NA","space","space","space","a","NA","569","NA","121132","3422","12532","569","NA","2","legacy","1024","2","48000","-16","experiment","3","odd","absent","138525","138525","NA","168254","1355","138509","171629","172148","1383","122533","125975","172148","172719","NA","171612","Fraction component detection task","25","15843","27","yes","1280"
"92.8571428571","92.8571428571","587.75","587.75","#808080","no","legacy","legacy","legacy","0","uniform","1","undefined","undefined","undefined","1","l","0","0","0","27","0","0","27","27","0","0","0","27","27","0","27","Fri Apr 27 10:53:54 2018","#757575","low","4","The main experiment item","yes","","experiment.osexp","/Users/tom/github/sft-fraction/procedure","no","mono","no","24","no","white","no","yes","800","legacy","27","27","0","/Users/tom/github/sft-fraction/results/data/subject-3b.csv","legacy","#000000","high","8","Jazzy James","3.1.9","0","l","NA","space","space","space","l","NA","614","NA","121132","3422","12532","614","NA","2","legacy","1024","2","48000","-16","experiment","3","odd","present","138525","138525","NA","168254","1355","138509","172802","173319","1383","122533","125975","173319","173935","NA","172786","Fraction component detection task","26","16457","28","yes","1280"
"93.1034482759","93.1034482759","588.551724138","588.551724138","#808080","no","legacy","legacy","legacy","0","uniform","1","undefined","undefined","undefined","1","a","0","0","0","28","0","0","28","28","0","0","0","28","28","0","28","Fri Apr 27 10:53:54 2018","#757575","low","3","The main experiment item","yes","","experiment.osexp","/Users/tom/github/sft-fraction/procedure","no","mono","no","24","no","white","no","yes","800","legacy","28","28","0","/Users/tom/github/sft-fraction/results/data/subject-3b.csv","legacy","#757575","low","2","Jazzy James","3.1.9","0","a","NA","space","space","space","a","NA","611","NA","121132","3422","12532","611","NA","2","legacy","1024","2","48000","-16","experiment","3","odd","absent","138525","138525","NA","168254","1355","138509","174017","174538","1383","122533","125975","174538","175151","NA","174002","Fraction component detection task","27","17068","29","yes","1280"
"93.3333333333","93.3333333333","584.766666667","584.766666667","#808080","no","legacy","legacy","legacy","0","uniform","1","undefined","undefined","undefined","1","a","0","0","0","29","0","0","29","29","0","0","0","29","29","0","29","Fri Apr 27 10:53:54 2018","#000000","high","2","The main experiment item","yes","","experiment.osexp","/Users/tom/github/sft-fraction/procedure","no","mono","no","24","no","white","no","yes","800","legacy","29","29","0","/Users/tom/github/sft-fraction/results/data/subject-3b.csv","legacy","#000000","high","3","Jazzy James","3.1.9","0","a","NA","space","space","space","a","NA","475","NA","121132","3422","12532","475","NA","2","legacy","1024","2","48000","-16","experiment","3","odd","absent","138525","138525","NA","168254","1355","138509","175237","175754","1383","122533","125975","175754","176231","NA","175215","Fraction component detection task","28","17543","30","yes","1280"
"93.5483870968","93.5483870968","580.258064516","580.258064516","#808080","no","legacy","legacy","legacy","0","uniform","1","undefined","undefined","undefined","1","l","0","0","0","30","0","0","30","30","0","0","0","30","30","0","30","Fri Apr 27 10:53:54 2018","#757575","low","2","The main experiment item","yes","","experiment.osexp","/Users/tom/github/sft-fraction/procedure","no","mono","no","24","no","white","no","yes","800","legacy","30","30","0","/Users/tom/github/sft-fraction/results/data/subject-3b.csv","legacy","#757575","low","6","Jazzy James","3.1.9","0","l","NA","space","space","space","l","NA","445","NA","121132","3422","12532","445","NA","2","legacy","1024","2","48000","-16","experiment","3","odd","present","138525","138525","NA","168254","1355","138509","176315","176832","1383","122533","125975","176832","177279","NA","176299","Fraction component detection task","29","17988","31","yes","1280"
"93.75","93.75","580.0625","580.0625","#808080","no","legacy","legacy","legacy","0","uniform","1","undefined","undefined","undefined","1","l","0","0","0","31","0","0","31","31","0","0","0","31","31","0","31","Fri Apr 27 10:53:54 2018","#000000","high","7","The main experiment item","yes","","experiment.osexp","/Users/tom/github/sft-fraction/procedure","no","mono","no","24","no","white","no","yes","800","legacy","31","31","0","/Users/tom/github/sft-fraction/results/data/subject-3b.csv","legacy","#000000","high","4","Jazzy James","3.1.9","0","l","NA","space","space","space","l","NA","574","NA","121132","3422","12532","574","NA","2","legacy","1024","2","48000","-16","experiment","3","odd","present","138525","138525","NA","168254","1355","138509","177363","177879","1383","122533","125975","177879","178455","NA","177343","Fraction component detection task","30","18562","32","yes","1280"
"93.9393939394","93.9393939394","575.484848485","575.484848485","#808080","no","legacy","legacy","legacy","0","uniform","1","undefined","undefined","undefined","1","l","0","0","0","32","0","0","32","32","0","0","0","32","32","0","32","Fri Apr 27 10:53:54 2018","#000000","high","2","The main experiment item","yes","","experiment.osexp","/Users/tom/github/sft-fraction/procedure","no","mono","no","24","no","white","no","yes","800","legacy","32","32","0","/Users/tom/github/sft-fraction/results/data/subject-3b.csv","legacy","#757575","low","7","Jazzy James","3.1.9","0","l","NA","space","space","space","l","NA","429","NA","121132","3422","12532","429","NA","2","legacy","1024","2","48000","-16","experiment","3","odd","present","138525","138525","NA","168254","1355","138509","178535","179056","1383","122533","125975","179056","179487","NA","178520","Fraction component detection task","31","18991","33","yes","1280"
"94.1176470588","94.1176470588","570.323529412","570.323529412","#808080","no","legacy","legacy","legacy","0","uniform","1","undefined","undefined","undefined","1","l","0","0","0","33","0","0","33","33","0","0","0","33","33","0","33","Fri Apr 27 10:53:54 2018","#000000","high","6","The main experiment item","yes","","experiment.osexp","/Users/tom/github/sft-fraction/procedure","no","mono","no","24","no","white","no","yes","800","legacy","33","33","0","/Users/tom/github/sft-fraction/results/data/subject-3b.csv","legacy","#757575","low","7","Jazzy James","3.1.9","0","l","NA","space","space","space","l","NA","400","NA","121132","3422","12532","400","NA","2","legacy","1024","2","48000","-16","experiment","3","odd","present","138525","138525","NA","168254","1355","138509","179567","180085","1383","122533","125975","180085","180488","NA","179552","Fraction component detection task","32","19391","34","yes","1280"
"94.2857142857","94.2857142857","567.342857143","567.342857143","#808080","no","legacy","legacy","legacy","0","uniform","1","undefined","undefined","undefined","1","a","0","0","0","34","0","0","34","34","0","0","0","34","34","0","34","Fri Apr 27 10:53:54 2018","#757575","low","3","The main experiment item","yes","","experiment.osexp","/Users/tom/github/sft-fraction/procedure","no","mono","no","24","no","white","no","yes","800","legacy","34","34","0","/Users/tom/github/sft-fraction/results/data/subject-3b.csv","legacy","#757575","low","2","Jazzy James","3.1.9","0","a","NA","space","space","space","a","NA","466","NA","121132","3422","12532","466","NA","2","legacy","1024","2","48000","-16","experiment","3","odd","absent","138525","138525","NA","168254","1355","138509","180578","181099","1383","122533","125975","181099","181567","NA","180559","Fraction component detection task","33","19857","35","yes","1280"
"94.4444444444","94.4444444444","569.694444444","569.694444444","#808080","no","legacy","legacy","legacy","0","uniform","1","undefined","undefined","undefined","1","a","0","0","0","35","0","0","35","35","0","0","0","35","35","0","35","Fri Apr 27 10:53:54 2018","#757575","low","2","The main experiment item","yes","","experiment.osexp","/Users/tom/github/sft-fraction/procedure","no","mono","no","24","no","white","no","yes","800","legacy","35","35","0","/Users/tom/github/sft-fraction/results/data/subject-3b.csv","legacy","#757575","low","4","Jazzy James","3.1.9","0","a","NA","space","space","space","a","NA","652","NA","121132","3422","12532","652","NA","2","legacy","1024","2","48000","-16","experiment","3","odd","absent","138525","138525","NA","168254","1355","138509","181651","182168","1383","122533","125975","182169","182823","NA","181630","Fraction component detection task","34","20509","36","yes","1280"
"94.5945945946","94.5945945946","566.972972973","566.972972973","#808080","no","legacy","legacy","legacy","0","uniform","1","undefined","undefined","undefined","1","a","0","0","0","36","0","0","36","36","0","0","0","36","36","0","36","Fri Apr 27 10:53:54 2018","#757575","low","4","The main experiment item","yes","","experiment.osexp","/Users/tom/github/sft-fraction/procedure","no","mono","no","24","no","white","no","yes","800","legacy","36","36","0","/Users/tom/github/sft-fraction/results/data/subject-3b.csv","legacy","#000000","high","2","Jazzy James","3.1.9","0","a","NA","space","space","space","a","NA","469","NA","121132","3422","12532","469","NA","2","legacy","1024","2","48000","-16","experiment","3","odd","absent","138525","138525","NA","168254","1355","138509","182906","183423","1383","122533","125975","183424","183895","NA","182889","Fraction component detection task","35","20978","37","yes","1280"
"94.7368421053","94.7368421053","565.789473684","565.789473684","#808080","no","legacy","legacy","legacy","0","uniform","1","undefined","undefined","undefined","1","a","0","0","0","37","0","0","37","37","0","0","0","37","37","0","37","Fri Apr 27 10:53:54 2018","#757575","low","2","The main experiment item","yes","","experiment.osexp","/Users/tom/github/sft-fraction/procedure","no","mono","no","24","no","white","no","yes","800","legacy","37","37","0","/Users/tom/github/sft-fraction/results/data/subject-3b.csv","legacy","#000000","high","2","Jazzy James","3.1.9","0","a","NA","space","space","space","a","NA","522","NA","121132","3422","12532","522","NA","2","legacy","1024","2","48000","-16","experiment","3","odd","absent","138525","138525","NA","168254","1355","138509","183982","184499","1383","122533","125975","184499","185023","NA","183961","Fraction component detection task","36","21500","38","yes","1280"
"94.8717948718","94.8717948718","563.974358974","563.974358974","#808080","no","legacy","legacy","legacy","0","uniform","1","undefined","undefined","undefined","1","a","0","0","0","38","0","0","38","38","0","0","0","38","38","0","38","Fri Apr 27 10:53:54 2018","#757575","low","4","The main experiment item","yes","","experiment.osexp","/Users/tom/github/sft-fraction/procedure","no","mono","no","24","no","white","no","yes","800","legacy","38","38","0","/Users/tom/github/sft-fraction/results/data/subject-3b.csv","legacy","#757575","low","4","Jazzy James","3.1.9","0","a","NA","space","space","space","a","NA","495","NA","121132","3422","12532","495","NA","2","legacy","1024","2","48000","-16","experiment","3","odd","absent","138525","138525","NA","168254","1355","138509","185115","185638","1383","122533","125975","185639","186136","NA","185095","Fraction component detection task","37","21995","39","yes","1280"
"95","95","563.575","563.575","#808080","no","legacy","legacy","legacy","0","uniform","1","undefined","undefined","undefined","1","a","0","0","0","39","0","0","39","39","0","0","0","39","39","0","39","Fri Apr 27 10:53:54 2018","#000000","high","3","The main experiment item","yes","","experiment.osexp","/Users/tom/github/sft-fraction/procedure","no","mono","no","24","no","white","no","yes","800","legacy","39","39","0","/Users/tom/github/sft-fraction/results/data/subject-3b.csv","legacy","#000000","high","4","Jazzy James","3.1.9","0","a","NA","space","space","space","a","NA","548","NA","121132","3422","12532","548","NA","2","legacy","1024","2","48000","-16","experiment","3","odd","absent","138525","138525","NA","168254","1355","138509","186226","186746","1383","122533","125975","186746","187296","NA","186206","Fraction component detection task","38","22543","40","yes","1280"
"95.1219512195","95.1219512195","562.243902439","562.243902439","#808080","no","legacy","legacy","legacy","0","uniform","1","undefined","undefined","undefined","1","l","0","0","0","40","0","0","40","40","0","0","0","40","40","0","40","Fri Apr 27 10:53:54 2018","#000000","high","7","The main experiment item","yes","","experiment.osexp","/Users/tom/github/sft-fraction/procedure","no","mono","no","24","no","white","no","yes","800","legacy","40","40","0","/Users/tom/github/sft-fraction/results/data/subject-3b.csv","legacy","#757575","low","4","Jazzy James","3.1.9","0","l","NA","space","space","space","l","NA","509","NA","121132","3422","12532","509","NA","2","legacy","1024","2","48000","-16","experiment","3","odd","present","138525","138525","NA","168254","1355","138509","187380","187897","1383","122533","125975","187897","188408","NA","187361","Fraction component detection task","39","23052","41","yes","1280"
"95.2380952381","95.2380952381","561.952380952","561.952380952","#808080","no","legacy","legacy","legacy","0","uniform","1","undefined","undefined","undefined","1","l","0","0","0","41","0","0","41","41","0","0","0","41","41","0","41","Fri Apr 27 10:53:54 2018","#000000","high","3","The main experiment item","yes","","experiment.osexp","/Users/tom/github/sft-fraction/procedure","no","mono","no","24","no","white","no","yes","800","legacy","41","41","0","/Users/tom/github/sft-fraction/results/data/subject-3b.csv","legacy","#000000","high","6","Jazzy James","3.1.9","0","l","NA","space","space","space","l","NA","550","NA","121132","3422","12532","550","NA","2","legacy","1024","2","48000","-16","experiment","3","odd","present","138525","138525","NA","168254","1355","138509","188498","189016","1383","122533","125975","189016","189568","NA","188478","Fraction component detection task","40","23602","42","yes","1280"
"95.3488372093","95.3488372093","559.697674419","559.697674419","#808080","no","legacy","legacy","legacy","0","uniform","1","undefined","undefined","undefined","1","l","0","0","0","42","0","0","42","42","0","0","0","42","42","0","42","Fri Apr 27 10:53:54 2018","#757575","low","3","The main experiment item","yes","","experiment.osexp","/Users/tom/github/sft-fraction/procedure","no","mono","no","24","no","white","no","yes","800","legacy","42","42","0","/Users/tom/github/sft-fraction/results/data/subject-3b.csv","legacy","#757575","low","7","Jazzy James","3.1.9","0","l","NA","space","space","space","l","NA","465","NA","121132","3422","12532","465","NA","2","legacy","1024","2","48000","-16","experiment","3","odd","present","138525","138525","NA","168254","1355","138509","189654","190173","1383","122533","125975","190173","190640","NA","189637","Fraction component detection task","41","24067","43","yes","1280"
"95.4545454545","95.4545454545","557.477272727","557.477272727","#808080","no","legacy","legacy","legacy","0","uniform","1","undefined","undefined","undefined","1","l","0","0","0","43","0","0","43","43","0","0","0","43","43","0","43","Fri Apr 27 10:53:54 2018","#757575","low","4","The main experiment item","yes","","experiment.osexp","/Users/tom/github/sft-fraction/procedure","no","mono","no","24","no","white","no","yes","800","legacy","43","43","0","/Users/tom/github/sft-fraction/results/data/subject-3b.csv","legacy","#757575","low","7","Jazzy James","3.1.9","0","l","NA","space","space","space","l","NA","462","NA","121132","3422","12532","462","NA","2","legacy","1024","2","48000","-16","experiment","3","odd","present","138525","138525","NA","168254","1355","138509","190730","191247","1383","122533","125975","191248","191712","NA","190708","Fraction component detection task","42","24529","44","yes","1280"
"95.5555555556","95.5555555556","557.355555556","557.355555556","#808080","no","legacy","legacy","legacy","0","uniform","1","undefined","undefined","undefined","1","a","0","0","0","44","0","0","44","44","0","0","0","44","44","0","44","Fri Apr 27 10:53:54 2018","#757575","low","3","The main experiment item","yes","","experiment.osexp","/Users/tom/github/sft-fraction/procedure","no","mono","no","24","no","white","no","yes","800","legacy","44","44","0","/Users/tom/github/sft-fraction/results/data/subject-3b.csv","legacy","#000000","high","2","Jazzy James","3.1.9","0","a","NA","space","space","space","a","NA","552","NA","121132","3422","12532","552","NA","2","legacy","1024","2","48000","-16","experiment","3","odd","absent","138525","138525","NA","168254","1355","138509","191793","192310","1383","122533","125975","192310","192864","NA","191777","Fraction component detection task","43","25081","45","yes","1280"
"95.652173913","95.652173913","555.97826087","555.97826087","#808080","no","legacy","legacy","legacy","0","uniform","1","undefined","undefined","undefined","1","a","0","0","0","45","0","0","45","45","0","0","0","45","45","0","45","Fri Apr 27 10:53:54 2018","#757575","low","4","The main experiment item","yes","","experiment.osexp","/Users/tom/github/sft-fraction/procedure","no","mono","no","24","no","white","no","yes","800","legacy","45","45","0","/Users/tom/github/sft-fraction/results/data/subject-3b.csv","legacy","#000000","high","4","Jazzy James","3.1.9","0","a","NA","space","space","space","a","NA","494","NA","121132","3422","12532","494","NA","2","legacy","1024","2","48000","-16","experiment","3","odd","absent","138525","138525","NA","168254","1355","138509","192955","193472","1383","122533","125975","193472","193970","NA","192935","Fraction component detection task","44","25575","46","yes","1280"
"95.7446808511","95.7446808511","554.319148936","554.319148936","#808080","no","legacy","legacy","legacy","0","uniform","1","undefined","undefined","undefined","1","l","0","0","0","46","0","0","46","46","0","0","0","46","46","0","46","Fri Apr 27 10:53:54 2018","#000000","high","2","The main experiment item","yes","","experiment.osexp","/Users/tom/github/sft-fraction/procedure","no","mono","no","24","no","white","no","yes","800","legacy","46","46","0","/Users/tom/github/sft-fraction/results/data/subject-3b.csv","legacy","#757575","low","6","Jazzy James","3.1.9","0","l","NA","space","space","space","l","NA","478","NA","121132","3422","12532","478","NA","2","legacy","1024","2","48000","-16","experiment","3","odd","present","138525","138525","NA","168254","1355","138509","194055","194576","1383","122533","125975","194576","195056","NA","194038","Fraction component detection task","45","26053","47","yes","1280"
"95.8333333333","95.8333333333","552.770833333","552.770833333","#808080","no","legacy","legacy","legacy","0","uniform","1","undefined","undefined","undefined","1","l","0","0","0","47","0","0","47","47","0","0","0","47","47","0","47","Fri Apr 27 10:53:54 2018","#757575","low","2","The main experiment item","yes","","experiment.osexp","/Users/tom/github/sft-fraction/procedure","no","mono","no","24","no","white","no","yes","800","legacy","47","47","0","/Users/tom/github/sft-fraction/results/data/subject-3b.csv","legacy","#000000","high","7","Jazzy James","3.1.9","0","l","NA","space","space","space","l","NA","480","NA","121132","3422","12532","480","NA","2","legacy","1024","2","48000","-16","experiment","3","odd","present","138525","138525","NA","168254","1355","138509","195136","195654","1383","122533","125975","195654","196137","NA","195120","Fraction component detection task","46","26533","48","yes","1280"
"95.9183673469","95.9183673469","551","551","#808080","no","legacy","legacy","legacy","0","uniform","1","undefined","undefined","undefined","1","a","0","0","0","48","0","0","48","48","0","0","0","48","48","0","48","Fri Apr 27 10:53:54 2018","#757575","low","4","The main experiment item","yes","","experiment.osexp","/Users/tom/github/sft-fraction/procedure","no","mono","no","24","no","white","no","yes","800","legacy","48","48","0","/Users/tom/github/sft-fraction/results/data/subject-3b.csv","legacy","#000000","high","2","Jazzy James","3.1.9","0","a","NA","space","space","space","a","NA","466","NA","121132","3422","12532","466","NA","2","legacy","1024","2","48000","-16","experiment","3","odd","absent","138525","138525","NA","168254","1355","138509","196223","196740","1383","122533","125975","196740","197208","NA","196202","Fraction component detection task","47","26999","49","yes","1280"
"96","96","547.94","547.94","#808080","no","legacy","legacy","legacy","0","uniform","1","undefined","undefined","undefined","1","l","0","0","0","49","0","0","49","49","0","0","0","49","49","0","49","Fri Apr 27 10:53:54 2018","#000000","high","8","The main experiment item","yes","","experiment.osexp","/Users/tom/github/sft-fraction/procedure","no","mono","no","24","no","white","no","yes","800","legacy","49","49","0","/Users/tom/github/sft-fraction/results/data/subject-3b.csv","legacy","#000000","high","8","Jazzy James","3.1.9","0","l","NA","space","space","space","l","NA","398","NA","121132","3422","12532","398","NA","2","legacy","1024","2","48000","-16","experiment","3","odd","present","138525","138525","NA","168254","1355","138509","197291","197807","1383","122533","125975","197808","198208","NA","197275","Fraction component detection task","48","27397","50","yes","1280"
"96.0784313725","96.0784313725","546.333333333","546.333333333","#808080","no","legacy","legacy","legacy","0","uniform","1","undefined","undefined","undefined","1","l","0","0","0","50","0","0","50","50","0","0","0","50","50","0","50","Fri Apr 27 10:53:54 2018","#757575","low","2","The main experiment item","yes","","experiment.osexp","/Users/tom/github/sft-fraction/procedure","no","mono","no","24","no","white","no","yes","800","legacy","50","50","0","/Users/tom/github/sft-fraction/results/data/subject-3b.csv","legacy","#000000","high","8","Jazzy James","3.1.9","0","l","NA","space","space","space","l","NA","466","NA","121132","3422","12532","466","NA","2","legacy","1024","2","48000","-16","experiment","3","odd","present","138525","138525","NA","168254","1355","138509","198293","198811","1383","122533","125975","198812","199280","NA","198273","Fraction component detection task","49","27863","51","yes","1280"
"94.2307692308","94.2307692308","545.576923077","545.576923077","#808080","no","legacy","legacy","legacy","0","uniform","0","undefined","undefined","undefined","0","a","0","0","0","51","0","0","51","51","0","0","0","51","51","0","51","Fri Apr 27 10:53:54 2018","#757575","low","3","The main experiment item","yes","","experiment.osexp","/Users/tom/github/sft-fraction/procedure","no","mono","no","24","no","white","no","yes","800","legacy","51","51","0","/Users/tom/github/sft-fraction/results/data/subject-3b.csv","legacy","#000000","high","4","Jazzy James","3.1.9","0","l","NA","space","space","space","l","NA","507","NA","121132","3422","12532","507","NA","2","legacy","1024","2","48000","-16","experiment","3","odd","absent","138525","138525","NA","168254","1355","138509","199362","199882","1383","122533","125975","199883","200392","NA","199345","Fraction component detection task","49","28370","52","yes","1280"
"94.3396226415","94.3396226415","545.320754717","545.320754717","#808080","no","legacy","legacy","legacy","0","uniform","1","undefined","undefined","undefined","1","a","0","0","0","52","0","0","52","52","0","0","0","52","52","0","52","Fri Apr 27 10:53:54 2018","#000000","high","3","The main experiment item","yes","","experiment.osexp","/Users/tom/github/sft-fraction/procedure","no","mono","no","24","no","white","no","yes","800","legacy","52","52","0","/Users/tom/github/sft-fraction/results/data/subject-3b.csv","legacy","#000000","high","2","Jazzy James","3.1.9","0","a","NA","space","space","space","a","NA","532","NA","121132","3422","12532","532","NA","2","legacy","1024","2","48000","-16","experiment","3","odd","absent","138525","138525","NA","200411","1355","138509","201495","202010","1383","122533","125975","202010","202545","NA","201476","Fraction component detection task","50","28902","53","yes","1280"
"94.4444444444","94.4444444444","542.833333333","542.833333333","#808080","no","legacy","legacy","legacy","0","uniform","1","undefined","undefined","undefined","1","a","0","0","0","53","0","0","53","53","0","0","0","53","53","0","53","Fri Apr 27 10:53:54 2018","#757575","low","4","The main experiment item","yes","","experiment.osexp","/Users/tom/github/sft-fraction/procedure","no","mono","no","24","no","white","no","yes","800","legacy","53","53","0","/Users/tom/github/sft-fraction/results/data/subject-3b.csv","legacy","#757575","low","2","Jazzy James","3.1.9","0","a","NA","space","space","space","a","NA","411","NA","121132","3422","12532","411","NA","2","legacy","1024","2","48000","-16","experiment","3","odd","absent","138525","138525","NA","200411","1355","138509","202626","203147","1383","122533","125975","203147","203561","NA","202610","Fraction component detection task","51","29313","54","yes","1280"
"94.5454545455","94.5454545455","543.418181818","543.418181818","#808080","no","legacy","legacy","legacy","0","uniform","1","undefined","undefined","undefined","1","l","0","0","0","54","0","0","54","54","0","0","0","54","54","0","54","Fri Apr 27 10:53:54 2018","#000000","high","8","The main experiment item","yes","","experiment.osexp","/Users/tom/github/sft-fraction/procedure","no","mono","no","24","no","white","no","yes","800","legacy","54","54","0","/Users/tom/github/sft-fraction/results/data/subject-3b.csv","legacy","#000000","high","4","Jazzy James","3.1.9","0","l","NA","space","space","space","l","NA","575","NA","121132","3422","12532","575","NA","2","legacy","1024","2","48000","-16","experiment","3","odd","present","138525","138525","NA","200411","1355","138509","203647","204166","1383","122533","125975","204167","204745","NA","203629","Fraction component detection task","52","29888","55","yes","1280"
"94.6428571429","94.6428571429","541.446428571","541.446428571","#808080","no","legacy","legacy","legacy","0","uniform","1","undefined","undefined","undefined","1","a","0","0","0","55","0","0","55","55","0","0","0","55","55","0","55","Fri Apr 27 10:53:54 2018","#000000","high","3","The main experiment item","yes","","experiment.osexp","/Users/tom/github/sft-fraction/procedure","no","mono","no","24","no","white","no","yes","800","legacy","55","55","0","/Users/tom/github/sft-fraction/results/data/subject-3b.csv","legacy","#000000","high","2","Jazzy James","3.1.9","0","a","NA","space","space","space","a","NA","433","NA","121132","3422","12532","433","NA","2","legacy","1024","2","48000","-16","experiment","3","odd","absent","138525","138525","NA","200411","1355","138509","204825","205341","1383","122533","125975","205341","205777","NA","204809","Fraction component detection task","53","30321","56","yes","1280"
"94.7368421053","94.7368421053","540.280701754","540.280701754","#808080","no","legacy","legacy","legacy","0","uniform","1","undefined","undefined","undefined","1","a","0","0","0","56","0","0","56","56","0","0","0","56","56","0","56","Fri Apr 27 10:53:54 2018","#757575","low","2","The main experiment item","yes","","experiment.osexp","/Users/tom/github/sft-fraction/procedure","no","mono","no","24","no","white","no","yes","800","legacy","56","56","0","/Users/tom/github/sft-fraction/results/data/subject-3b.csv","legacy","#000000","high","4","Jazzy James","3.1.9","0","a","NA","space","space","space","a","NA","475","NA","121132","3422","12532","475","NA","2","legacy","1024","2","48000","-16","experiment","3","odd","absent","138525","138525","NA","200411","1355","138509","205856","206379","1383","122533","125975","206379","206857","NA","205840","Fraction component detection task","54","30796","57","yes","1280"
"94.8275862069","94.8275862069","538.344827586","538.344827586","#808080","no","legacy","legacy","legacy","0","uniform","1","undefined","undefined","undefined","1","a","0","0","0","57","0","0","57","57","0","0","0","57","57","0","57","Fri Apr 27 10:53:54 2018","#757575","low","2","The main experiment item","yes","","experiment.osexp","/Users/tom/github/sft-fraction/procedure","no","mono","no","24","no","white","no","yes","800","legacy","57","57","0","/Users/tom/github/sft-fraction/results/data/subject-3b.csv","legacy","#000000","high","2","Jazzy James","3.1.9","0","a","NA","space","space","space","a","NA","428","NA","121132","3422","12532","428","NA","2","legacy","1024","2","48000","-16","experiment","3","odd","absent","138525","138525","NA","200411","1355","138509","206945","207467","1383","122533","125975","207467","207897","NA","206922","Fraction component detection task","55","31224","58","yes","1280"
"94.9152542373","94.9152542373","536.355932203","536.355932203","#808080","no","legacy","legacy","legacy","0","uniform","1","undefined","undefined","undefined","1","l","0","0","0","58","0","0","58","58","0","0","0","58","58","0","58","Fri Apr 27 10:53:54 2018","#757575","low","8","The main experiment item","yes","","experiment.osexp","/Users/tom/github/sft-fraction/procedure","no","mono","no","24","no","white","no","yes","800","legacy","58","58","0","/Users/tom/github/sft-fraction/results/data/subject-3b.csv","legacy","#757575","low","8","Jazzy James","3.1.9","0","l","NA","space","space","space","l","NA","421","NA","121132","3422","12532","421","NA","2","legacy","1024","2","48000","-16","experiment","3","odd","present","138525","138525","NA","200411","1355","138509","207988","208506","1383","122533","125975","208506","208929","NA","207966","Fraction component detection task","56","31645","59","yes","1280"
"93.3333333333","93.3333333333","533.983333333","533.983333333","#808080","no","legacy","legacy","legacy","0","uniform","0","undefined","undefined","undefined","0","l","0","0","0","59","0","0","59","59","0","0","0","59","59","0","59","Fri Apr 27 10:53:54 2018","#757575","low","7","The main experiment item","yes","","experiment.osexp","/Users/tom/github/sft-fraction/procedure","no","mono","no","24","no","white","no","yes","800","legacy","59","59","0","/Users/tom/github/sft-fraction/results/data/subject-3b.csv","legacy","#000000","high","6","Jazzy James","3.1.9","0","a","NA","space","space","space","a","NA","394","NA","121132","3422","12532","394","NA","2","legacy","1024","2","48000","-16","experiment","3","odd","present","138525","138525","NA","200411","1355","138509","209014","209533","1383","122533","125975","209533","209929","NA","208995","Fraction component detection task","56","32039","60","yes","1280"
"93.4426229508","93.4426229508","532.557377049","532.557377049","#808080","no","legacy","legacy","legacy","0","uniform","1","undefined","undefined","undefined","1","l","0","0","0","60","0","0","60","60","0","0","0","60","60","0","60","Fri Apr 27 10:53:54 2018","#000000","high","2","The main experiment item","yes","","experiment.osexp","/Users/tom/github/sft-fraction/procedure","no","mono","no","24","no","white","no","yes","800","legacy","60","60","0","/Users/tom/github/sft-fraction/results/data/subject-3b.csv","legacy","#000000","high","8","Jazzy James","3.1.9","0","l","NA","space","space","space","l","NA","447","NA","121132","3422","12532","447","NA","2","legacy","1024","2","48000","-16","experiment","3","odd","present","138525","138525","NA","209952","1355","138509","211034","211551","1383","122533","125975","211552","212000","NA","211013","Fraction component detection task","57","32486","61","yes","1280"
"93.5483870968","93.5483870968","532.048387097","532.048387097","#808080","no","legacy","legacy","legacy","0","uniform","1","undefined","undefined","undefined","1","l","0","0","0","61","0","0","61","61","0","0","0","61","61","0","61","Fri Apr 27 10:53:54 2018","#757575","low","2","The main experiment item","yes","","experiment.osexp","/Users/tom/github/sft-fraction/procedure","no","mono","no","24","no","white","no","yes","800","legacy","61","61","0","/Users/tom/github/sft-fraction/results/data/subject-3b.csv","legacy","#000000","high","6","Jazzy James","3.1.9","0","l","NA","space","space","space","l","NA","501","NA","121132","3422","12532","501","NA","2","legacy","1024","2","48000","-16","experiment","3","odd","present","138525","138525","NA","209952","1355","138509","212085","212602","1383","122533","125975","212602","213105","NA","212069","Fraction component detection task","58","32987","62","yes","1280"
"93.6507936508","93.6507936508","530.904761905","530.904761905","#808080","no","legacy","legacy","legacy","0","uniform","1","undefined","undefined","undefined","1","l","0","0","0","62","0","0","62","62","0","0","0","62","62","0","62","Fri Apr 27 10:53:54 2018","#000000","high","6","The main experiment item","yes","","experiment.osexp","/Users/tom/github/sft-fraction/procedure","no","mono","no","24","no","white","no","yes","800","legacy","62","62","0","/Users/tom/github/sft-fraction/results/data/subject-3b.csv","legacy","#000000","high","6","Jazzy James","3.1.9","0","l","NA","space","space","space","l","NA","460","NA","121132","3422","12532","460","NA","2","legacy","1024","2","48000","-16","experiment","3","odd","present","138525","138525","NA","209952","1355","138509","213189","213707","1383","122533","125975","213707","214169","NA","213173","Fraction component detection task","59","33447","63","yes","1280"
"93.75","93.75","531.140625","531.140625","#808080","no","legacy","legacy","legacy","0","uniform","1","undefined","undefined","undefined","1","a","0","0","0","63","0","0","63","63","0","0","0","63","63","0","63","Fri Apr 27 10:53:54 2018","#757575","low","3","The main experiment item","yes","","experiment.osexp","/Users/tom/github/sft-fraction/procedure","no","mono","no","24","no","white","no","yes","800","legacy","63","63","0","/Users/tom/github/sft-fraction/results/data/subject-3b.csv","legacy","#000000","high","3","Jazzy James","3.1.9","0","a","NA","space","space","space","a","NA","546","NA","121132","3422","12532","546","NA","2","legacy","1024","2","48000","-16","experiment","3","odd","absent","138525","138525","NA","209952","1355","138509","214253","214772","1383","122533","125975","214773","215321","NA","214233","Fraction component detection task","60","33993","64","yes","1280"
"93.8461538462","93.8461538462","530.707692308","530.707692308","#808080","no","legacy","legacy","legacy","0","uniform","1","undefined","undefined","undefined","1","a","0","0","0","64","0","0","64","64","0","0","0","64","64","0","64","Fri Apr 27 10:53:54 2018","#000000","high","3","The main experiment item","yes","","experiment.osexp","/Users/tom/github/sft-fraction/procedure","no","mono","no","24","no","white","no","yes","800","legacy","64","64","0","/Users/tom/github/sft-fraction/results/data/subject-3b.csv","legacy","#000000","high","3","Jazzy James","3.1.9","0","a","NA","space","space","space","a","NA","503","NA","121132","3422","12532","503","NA","2","legacy","1024","2","48000","-16","experiment","3","odd","absent","138525","138525","NA","209952","1355","138509","215408","215928","1383","122533","125975","215928","216434","NA","215386","Fraction component detection task","61","34496","65","yes","1280"
"93.9393939394","93.9393939394","530.181818182","530.181818182","#808080","no","legacy","legacy","legacy","0","uniform","1","undefined","undefined","undefined","1","l","0","0","0","65","0","0","65","65","0","0","0","65","65","0","65","Fri Apr 27 10:53:54 2018","#000000","high","6","The main experiment item","yes","","experiment.osexp","/Users/tom/github/sft-fraction/procedure","no","mono","no","24","no","white","no","yes","800","legacy","65","65","0","/Users/tom/github/sft-fraction/results/data/subject-3b.csv","legacy","#757575","low","8","Jazzy James","3.1.9","0","l","NA","space","space","space","l","NA","496","NA","121132","3422","12532","496","NA","2","legacy","1024","2","48000","-16","experiment","3","odd","present","138525","138525","NA","209952","1355","138509","216513","217030","1383","122533","125975","217031","217530","NA","216497","Fraction component detection task","62","34992","66","yes","1280"
"94.0298507463","94.0298507463","530.776119403","530.776119403","#808080","no","legacy","legacy","legacy","0","uniform","1","undefined","undefined","undefined","1","a","0","0","0","66","0","0","66","66","0","0","0","66","66","0","66","Fri Apr 27 10:53:54 2018","#000000","high","3","The main experiment item","yes","","experiment.osexp","/Users/tom/github/sft-fraction/procedure","no","mono","no","24","no","white","no","yes","800","legacy","66","66","0","/Users/tom/github/sft-fraction/results/data/subject-3b.csv","legacy","#757575","low","4","Jazzy James","3.1.9","0","a","NA","space","space","space","a","NA","570","NA","121132","3422","12532","570","NA","2","legacy","1024","2","48000","-16","experiment","3","odd","absent","138525","138525","NA","209952","1355","138509","217615","218133","1383","122533","125975","218133","218706","NA","217597","Fraction component detection task","63","35562","67","yes","1280"
"94.1176470588","94.1176470588","531.367647059","531.367647059","#808080","no","legacy","legacy","legacy","0","uniform","1","undefined","undefined","undefined","1","l","0","0","0","67","0","0","67","67","0","0","0","67","67","0","67","Fri Apr 27 10:53:54 2018","#000000","high","8","The main experiment item","yes","","experiment.osexp","/Users/tom/github/sft-fraction/procedure","no","mono","no","24","no","white","no","yes","800","legacy","67","67","0","/Users/tom/github/sft-fraction/results/data/subject-3b.csv","legacy","#000000","high","2","Jazzy James","3.1.9","0","l","NA","space","space","space","l","NA","571","NA","121132","3422","12532","571","NA","2","legacy","1024","2","48000","-16","experiment","3","odd","present","138525","138525","NA","209952","1355","138509","218784","219300","1383","122533","125975","219300","219874","NA","218768","Fraction component detection task","64","36133","68","yes","1280"
"94.2028985507","94.2028985507","530.956521739","530.956521739","#808080","no","legacy","legacy","legacy","0","uniform","1","undefined","undefined","undefined","1","a","0","0","0","68","0","0","68","68","0","0","0","68","68","0","68","Fri Apr 27 10:53:54 2018","#757575","low","3","The main experiment item","yes","","experiment.osexp","/Users/tom/github/sft-fraction/procedure","no","mono","no","24","no","white","no","yes","800","legacy","68","68","0","/Users/tom/github/sft-fraction/results/data/subject-3b.csv","legacy","#000000","high","2","Jazzy James","3.1.9","0","a","NA","space","space","space","a","NA","503","NA","121132","3422","12532","503","NA","2","legacy","1024","2","48000","-16","experiment","3","odd","absent","138525","138525","NA","209952","1355","138509","219952","220471","1383","122533","125975","220472","220978","NA","219937","Fraction component detection task","65","36636","69","yes","1280"
"94.2857142857","94.2857142857","529.885714286","529.885714286","#808080","no","legacy","legacy","legacy","0","uniform","1","undefined","undefined","undefined","1","l","0","0","0","69","0","0","69","69","0","0","0","69","69","0","69","Fri Apr 27 10:53:54 2018","#757575","low","7","The main experiment item","yes","","experiment.osexp","/Users/tom/github/sft-fraction/procedure","no","mono","no","24","no","white","no","yes","800","legacy","69","69","0","/Users/tom/github/sft-fraction/results/data/subject-3b.csv","legacy","#000000","high","3","Jazzy James","3.1.9","0","l","NA","space","space","space","l","NA","456","NA","121132","3422","12532","456","NA","2","legacy","1024","2","48000","-16","experiment","3","odd","present","138525","138525","NA","209952","1355","138509","221057","221574","1383","122533","125975","221574","222033","NA","221042","Fraction component detection task","66","37092","70","yes","1280"
"92.9577464789","92.9577464789","528.084507042","528.084507042","#808080","no","legacy","legacy","legacy","0","uniform","0","undefined","undefined","undefined","0","l","0","0","0","70","0","0","70","70","0","0","0","70","70","0","70","Fri Apr 27 10:53:54 2018","#757575","low","6","The main experiment item","yes","","experiment.osexp","/Users/tom/github/sft-fraction/procedure","no","mono","no","24","no","white","no","yes","800","legacy","70","70","0","/Users/tom/github/sft-fraction/results/data/subject-3b.csv","legacy","#757575","low","3","Jazzy James","3.1.9","0","a","NA","space","space","space","a","NA","402","NA","121132","3422","12532","402","NA","2","legacy","1024","2","48000","-16","experiment","3","odd","present","138525","138525","NA","209952","1355","138509","222107","222628","1383","122533","125975","222628","223033","NA","222091","Fraction component detection task","66","37494","71","yes","1280"
"93.0555555556","93.0555555556","531.069444444","531.069444444","#808080","no","legacy","legacy","legacy","0","uniform","1","undefined","undefined","undefined","1","a","0","0","0","71","0","0","71","71","0","0","0","71","71","0","71","Fri Apr 27 10:53:54 2018","#757575","low","4","The main experiment item","yes","","experiment.osexp","/Users/tom/github/sft-fraction/procedure","no","mono","no","24","no","white","no","yes","800","legacy","71","71","0","/Users/tom/github/sft-fraction/results/data/subject-3b.csv","legacy","#757575","low","2","Jazzy James","3.1.9","0","a","NA","space","space","space","a","NA","743","NA","121132","3422","12532","743","NA","2","legacy","1024","2","48000","-16","experiment","3","odd","absent","138525","138525","NA","223057","1355","138509","224139","224657","1383","122533","125975","224657","225403","NA","224119","Fraction component detection task","67","38237","72","yes","1280"
"93.1506849315","93.1506849315","544.109589041","544.109589041","#808080","no","legacy","legacy","legacy","0","uniform","1","undefined","undefined","undefined","1","l","0","0","0","72","0","0","72","72","0","0","0","72","72","0","72","Fri Apr 27 10:53:54 2018","#757575","low","3","The main experiment item","yes","","experiment.osexp","/Users/tom/github/sft-fraction/procedure","no","mono","no","24","no","white","no","yes","800","legacy","72","72","0","/Users/tom/github/sft-fraction/results/data/subject-3b.csv","legacy","#000000","high","6","Jazzy James","3.1.9","0","l","NA","space","space","space","l","NA","1483","NA","121132","3422","12532","1483","NA","2","legacy","1024","2","48000","-16","experiment","3","odd","present","138525","138525","NA","223057","1355","138509","225486","226005","1383","122533","125975","226005","227491","NA","225470","Fraction component detection task","68","39720","73","yes","1280"
"93.2432432432","93.2432432432","562.202702703","562.202702703","#808080","no","legacy","legacy","legacy","0","uniform","1","undefined","undefined","undefined","1","a","0","0","0","73","0","0","73","73","0","0","0","73","73","0","73","Fri Apr 27 10:53:54 2018","#000000","high","2","The main experiment item","yes","","experiment.osexp","/Users/tom/github/sft-fraction/procedure","no","mono","no","24","no","white","no","yes","800","legacy","73","73","0","/Users/tom/github/sft-fraction/results/data/subject-3b.csv","legacy","#757575","low","3","Jazzy James","3.1.9","0","a","NA","space","space","space","a","NA","1883","NA","121132","3422","12532","1883","NA","2","legacy","1024","2","48000","-16","experiment","3","odd","absent","138525","138525","NA","223057","1355","138509","227576","228093","1383","122533","125975","228093","229978","NA","227556","Fraction component detection task","69","41603","74","yes","1280"
"93.3333333333","93.3333333333","563.813333333","563.813333333","#808080","no","legacy","legacy","legacy","0","uniform","1","undefined","undefined","undefined","1","l","0","0","0","74","0","0","74","74","0","0","0","74","74","0","74","Fri Apr 27 10:53:54 2018","#757575","low","6","The main experiment item","yes","","experiment.osexp","/Users/tom/github/sft-fraction/procedure","no","mono","no","24","no","white","no","yes","800","legacy","74","74","0","/Users/tom/github/sft-fraction/results/data/subject-3b.csv","legacy","#000000","high","3","Jazzy James","3.1.9","0","l","NA","space","space","space","l","NA","683","NA","121132","3422","12532","683","NA","2","legacy","1024","2","48000","-16","experiment","3","odd","present","138525","138525","NA","223057","1355","138509","230061","230580","1383","122533","125975","230581","231266","NA","230046","Fraction component detection task","70","42286","75","yes","1280"
"93.4210526316","93.4210526316","563.657894737","563.657894737","#808080","no","legacy","legacy","legacy","0","uniform","1","undefined","undefined","undefined","1","l","0","0","0","75","0","0","75","75","0","0","0","75","75","0","75","Fri Apr 27 10:53:54 2018","#757575","low","6","The main experiment item","yes","","experiment.osexp","/Users/tom/github/sft-fraction/procedure","no","mono","no","24","no","white","no","yes","800","legacy","75","75","0","/Users/tom/github/sft-fraction/results/data/subject-3b.csv","legacy","#000000","high","6","Jazzy James","3.1.9","0","l","NA","space","space","space","l","NA","552","NA","121132","3422","12532","552","NA","2","legacy","1024","2","48000","-16","experiment","3","odd","present","138525","138525","NA","223057","1355","138509","231352","231871","1383","122533","125975","231872","232426","NA","231331","Fraction component detection task","71","42838","76","yes","1280"
"93.5064935065","93.5064935065","563","563","#808080","no","legacy","legacy","legacy","0","uniform","1","undefined","undefined","undefined","1","l","0","0","0","76","0","0","76","76","0","0","0","76","76","0","76","Fri Apr 27 10:53:54 2018","#757575","low","7","The main experiment item","yes","","experiment.osexp","/Users/tom/github/sft-fraction/procedure","no","mono","no","24","no","white","no","yes","800","legacy","76","76","0","/Users/tom/github/sft-fraction/results/data/subject-3b.csv","legacy","#000000","high","2","Jazzy James","3.1.9","0","l","NA","space","space","space","l","NA","513","NA","121132","3422","12532","513","NA","2","legacy","1024","2","48000","-16","experiment","3","odd","present","138525","138525","NA","223057","1355","138509","232514","233030","1383","122533","125975","233031","233547","NA","232493","Fraction component detection task","72","43351","77","yes","1280"
"93.5897435897","93.5897435897","561.051282051","561.051282051","#808080","no","legacy","legacy","legacy","0","uniform","1","undefined","undefined","undefined","1","l","0","0","0","77","0","0","77","77","0","0","0","77","77","0","77","Fri Apr 27 10:53:54 2018","#000000","high","7","The main experiment item","yes","","experiment.osexp","/Users/tom/github/sft-fraction/procedure","no","mono","no","24","no","white","no","yes","800","legacy","77","77","0","/Users/tom/github/sft-fraction/results/data/subject-3b.csv","legacy","#000000","high","7","Jazzy James","3.1.9","0","l","NA","space","space","space","l","NA","411","NA","121132","3422","12532","411","NA","2","legacy","1024","2","48000","-16","experiment","3","odd","present","138525","138525","NA","223057","1355","138509","233632","234148","1383","122533","125975","234149","234562","NA","233610","Fraction component detection task","73","43762","78","yes","1280"
"93.6708860759","93.6708860759","559.835443038","559.835443038","#808080","no","legacy","legacy","legacy","0","uniform","1","undefined","undefined","undefined","1","l","0","0","0","78","0","0","78","78","0","0","0","78","78","0","78","Fri Apr 27 10:53:54 2018","#757575","low","4","The main experiment item","yes","","experiment.osexp","/Users/tom/github/sft-fraction/procedure","no","mono","no","24","no","white","no","yes","800","legacy","78","78","0","/Users/tom/github/sft-fraction/results/data/subject-3b.csv","legacy","#000000","high","6","Jazzy James","3.1.9","0","l","NA","space","space","space","l","NA","465","NA","121132","3422","12532","465","NA","2","legacy","1024","2","48000","-16","experiment","3","odd","present","138525","138525","NA","223057","1355","138509","234642","235159","1383","122533","125975","235159","235626","NA","234626","Fraction component detection task","74","44227","79","yes","1280"
"93.75","93.75","559.675","559.675","#808080","no","legacy","legacy","legacy","0","uniform","1","undefined","undefined","undefined","1","a","0","0","0","79","0","0","79","79","0","0","0","79","79","0","79","Fri Apr 27 10:53:54 2018","#000000","high","3","The main experiment item","yes","","experiment.osexp","/Users/tom/github/sft-fraction/procedure","no","mono","no","24","no","white","no","yes","800","legacy","79","79","0","/Users/tom/github/sft-fraction/results/data/subject-3b.csv","legacy","#757575","low","2","Jazzy James","3.1.9","0","a","NA","space","space","space","a","NA","547","NA","121132","3422","12532","547","NA","2","legacy","1024","2","48000","-16","experiment","3","odd","absent","138525","138525","NA","223057","1355","138509","235711","236228","1383","122533","125975","236229","236779","NA","235692","Fraction component detection task","75","44774","80","yes","1280"
"92.5925925926","92.5925925926","558.679012346","558.679012346","#808080","no","legacy","legacy","legacy","0","uniform","0","undefined","undefined","undefined","0","l","0","0","0","80","0","0","80","80","0","0","0","80","80","0","80","Fri Apr 27 10:53:54 2018","#000000","high","8","The main experiment item","yes","","experiment.osexp","/Users/tom/github/sft-fraction/procedure","no","mono","no","24","no","white","no","yes","800","legacy","80","80","0","/Users/tom/github/sft-fraction/results/data/subject-3b.csv","legacy","#000000","high","6","Jazzy James","3.1.9","0","a","NA","space","space","space","a","NA","479","NA","121132","3422","12532","479","NA","2","legacy","1024","2","48000","-16","experiment","3","odd","present","138525","138525","NA","223057","1355","138509","236860","237377","1383","122533","125975","237377","237859","NA","236845","Fraction component detection task","75","45253","81","yes","1280"
"92.6829268293","92.6829268293","557.585365854","557.585365854","#808080","no","legacy","legacy","legacy","0","uniform","1","undefined","undefined","undefined","1","a","0","0","0","81","0","0","81","81","0","0","0","81","81","0","81","Fri Apr 27 10:53:54 2018","#000000","high","3","The main experiment item","yes","","experiment.osexp","/Users/tom/github/sft-fraction/procedure","no","mono","no","24","no","white","no","yes","800","legacy","81","81","0","/Users/tom/github/sft-fraction/results/data/subject-3b.csv","legacy","#000000","high","4","Jazzy James","3.1.9","0","a","NA","space","space","space","a","NA","469","NA","121132","3422","12532","469","NA","2","legacy","1024","2","48000","-16","experiment","3","odd","absent","138525","138525","NA","237878","1355","138509","238966","239483","1383","122533","125975","239483","239955","NA","238944","Fraction component detection task","76","45722","82","yes","1280"
"92.7710843373","92.7710843373","555.843373494","555.843373494","#808080","no","legacy","legacy","legacy","0","uniform","1","undefined","undefined","undefined","1","a","0","0","0","82","0","0","82","82","0","0","0","82","82","0","82","Fri Apr 27 10:53:54 2018","#757575","low","3","The main experiment item","yes","","experiment.osexp","/Users/tom/github/sft-fraction/procedure","no","mono","no","24","no","white","no","yes","800","legacy","82","82","0","/Users/tom/github/sft-fraction/results/data/subject-3b.csv","legacy","#000000","high","3","Jazzy James","3.1.9","0","a","NA","space","space","space","a","NA","413","NA","121132","3422","12532","413","NA","2","legacy","1024","2","48000","-16","experiment","3","odd","absent","138525","138525","NA","237878","1355","138509","240042","240563","1383","122533","125975","240563","240979","NA","240024","Fraction component detection task","77","46135","83","yes","1280"
"92.8571428571","92.8571428571","554.869047619","554.869047619","#808080","no","legacy","legacy","legacy","0","uniform","1","undefined","undefined","undefined","1","a","0","0","0","83","0","0","83","83","0","0","0","83","83","0","83","Fri Apr 27 10:53:54 2018","#000000","high","3","The main experiment item","yes","","experiment.osexp","/Users/tom/github/sft-fraction/procedure","no","mono","no","24","no","white","no","yes","800","legacy","83","83","0","/Users/tom/github/sft-fraction/results/data/subject-3b.csv","legacy","#757575","low","4","Jazzy James","3.1.9","0","a","NA","space","space","space","a","NA","474","NA","121132","3422","12532","474","NA","2","legacy","1024","2","48000","-16","experiment","3","odd","absent","138525","138525","NA","237878","1355","138509","241063","241582","1383","122533","125975","241582","242059","NA","241044","Fraction component detection task","78","46609","84","yes","1280"
"92.9411764706","92.9411764706","553.329411765","553.329411765","#808080","no","legacy","legacy","legacy","0","uniform","1","undefined","undefined","undefined","1","l","0","0","0","84","0","0","84","84","0","0","0","84","84","0","84","Fri Apr 27 10:53:54 2018","#757575","low","7","The main experiment item","yes","","experiment.osexp","/Users/tom/github/sft-fraction/procedure","no","mono","no","24","no","white","no","yes","800","legacy","84","84","0","/Users/tom/github/sft-fraction/results/data/subject-3b.csv","legacy","#757575","low","4","Jazzy James","3.1.9","0","l","NA","space","space","space","l","NA","424","NA","121132","3422","12532","424","NA","2","legacy","1024","2","48000","-16","experiment","3","odd","present","138525","138525","NA","237878","1355","138509","242145","242664","1383","122533","125975","242664","243091","NA","242124","Fraction component detection task","79","47033","85","yes","1280"
"93.023255814","93.023255814","552.069767442","552.069767442","#808080","no","legacy","legacy","legacy","0","uniform","1","undefined","undefined","undefined","1","a","0","0","0","85","0","0","85","85","0","0","0","85","85","0","85","Fri Apr 27 10:53:54 2018","#000000","high","2","The main experiment item","yes","","experiment.osexp","/Users/tom/github/sft-fraction/procedure","no","mono","no","24","no","white","no","yes","800","legacy","85","85","0","/Users/tom/github/sft-fraction/results/data/subject-3b.csv","legacy","#000000","high","3","Jazzy James","3.1.9","0","a","NA","space","space","space","a","NA","445","NA","121132","3422","12532","445","NA","2","legacy","1024","2","48000","-16","experiment","3","odd","absent","138525","138525","NA","237878","1355","138509","243174","243691","1383","122533","125975","243691","244139","NA","243158","Fraction component detection task","80","47478","86","yes","1280"
"93.1034482759","93.1034482759","551.32183908","551.32183908","#808080","no","legacy","legacy","legacy","0","uniform","1","undefined","undefined","undefined","1","a","0","0","0","86","0","0","86","86","0","0","0","86","86","0","86","Fri Apr 27 10:53:54 2018","#000000","high","3","The main experiment item","yes","","experiment.osexp","/Users/tom/github/sft-fraction/procedure","no","mono","no","24","no","white","no","yes","800","legacy","86","86","0","/Users/tom/github/sft-fraction/results/data/subject-3b.csv","legacy","#757575","low","3","Jazzy James","3.1.9","0","a","NA","space","space","space","a","NA","487","NA","121132","3422","12532","487","NA","2","legacy","1024","2","48000","-16","experiment","3","odd","absent","138525","138525","NA","237878","1355","138509","244228","244745","1383","122533","125975","244745","245235","NA","244206","Fraction component detection task","81","47965","87","yes","1280"
"93.1818181818","93.1818181818","550.261363636","550.261363636","#808080","no","legacy","legacy","legacy","0","uniform","1","undefined","undefined","undefined","1","a","0","0","0","87","0","0","87","87","0","0","0","87","87","0","87","Fri Apr 27 10:53:54 2018","#757575","low","2","The main experiment item","yes","","experiment.osexp","/Users/tom/github/sft-fraction/procedure","no","mono","no","24","no","white","no","yes","800","legacy","87","87","0","/Users/tom/github/sft-fraction/results/data/subject-3b.csv","legacy","#757575","low","3","Jazzy James","3.1.9","0","a","NA","space","space","space","a","NA","458","NA","121132","3422","12532","458","NA","2","legacy","1024","2","48000","-16","experiment","3","odd","absent","138525","138525","NA","237878","1355","138509","245320","245838","1383","122533","125975","245838","246299","NA","245304","Fraction component detection task","82","48423","88","yes","1280"
"93.2584269663","93.2584269663","549.786516854","549.786516854","#808080","no","legacy","legacy","legacy","0","uniform","1","undefined","undefined","undefined","1","a","0","0","0","88","0","0","88","88","0","0","0","88","88","0","88","Fri Apr 27 10:53:54 2018","#000000","high","4","The main experiment item","yes","","experiment.osexp","/Users/tom/github/sft-fraction/procedure","no","mono","no","24","no","white","no","yes","800","legacy","88","88","0","/Users/tom/github/sft-fraction/results/data/subject-3b.csv","legacy","#000000","high","4","Jazzy James","3.1.9","0","a","NA","space","space","space","a","NA","508","NA","121132","3422","12532","508","NA","2","legacy","1024","2","48000","-16","experiment","3","odd","absent","138525","138525","NA","237878","1355","138509","246384","246901","1383","122533","125975","246901","247413","NA","246368","Fraction component detection task","83","48931","89","yes","1280"
"92.2222222222","92.2222222222","548.422222222","548.422222222","#808080","no","legacy","legacy","legacy","0","uniform","0","undefined","undefined","undefined","0","l","0","0","0","89","0","0","89","89","0","0","0","89","89","0","89","Fri Apr 27 10:53:54 2018","#757575","low","7","The main experiment item","yes","","experiment.osexp","/Users/tom/github/sft-fraction/procedure","no","mono","no","24","no","white","no","yes","800","legacy","89","89","0","/Users/tom/github/sft-fraction/results/data/subject-3b.csv","legacy","#000000","high","4","Jazzy James","3.1.9","0","a","NA","space","space","space","a","NA","427","NA","121132","3422","12532","427","NA","2","legacy","1024","2","48000","-16","experiment","3","odd","present","138525","138525","NA","237878","1355","138509","247502","248022","1383","122533","125975","248022","248451","NA","247481","Fraction component detection task","83","49358","90","yes","1280"
"92.3076923077","92.3076923077","548.967032967","548.967032967","#808080","no","legacy","legacy","legacy","0","uniform","1","undefined","undefined","undefined","1","a","0","0","0","90","0","0","90","90","0","0","0","90","90","0","90","Fri Apr 27 10:53:54 2018","#000000","high","3","The main experiment item","yes","","experiment.osexp","/Users/tom/github/sft-fraction/procedure","no","mono","no","24","no","white","no","yes","800","legacy","90","90","0","/Users/tom/github/sft-fraction/results/data/subject-3b.csv","legacy","#757575","low","2","Jazzy James","3.1.9","0","a","NA","space","space","space","a","NA","598","NA","121132","3422","12532","598","NA","2","legacy","1024","2","48000","-16","experiment","3","odd","absent","138525","138525","NA","248470","1355","138509","249550","250066","1383","122533","125975","250067","250669","NA","249534","Fraction component detection task","84","49956","91","yes","1280"
"92.3913043478","92.3913043478","547.760869565","547.760869565","#808080","no","legacy","legacy","legacy","0","uniform","1","undefined","undefined","undefined","1","a","0","0","0","91","0","0","91","91","0","0","0","91","91","0","91","Fri Apr 27 10:53:54 2018","#000000","high","4","The main experiment item","yes","","experiment.osexp","/Users/tom/github/sft-fraction/procedure","no","mono","no","24","no","white","no","yes","800","legacy","91","91","0","/Users/tom/github/sft-fraction/results/data/subject-3b.csv","legacy","#757575","low","2","Jazzy James","3.1.9","0","a","NA","space","space","space","a","NA","438","NA","121132","3422","12532","438","NA","2","legacy","1024","2","48000","-16","experiment","3","odd","absent","138525","138525","NA","248470","1355","138509","250754","251275","1383","122533","125975","251275","251716","NA","250734","Fraction component detection task","85","50394","92","yes","1280"
"92.4731182796","92.4731182796","546.774193548","546.774193548","#808080","no","legacy","legacy","legacy","0","uniform","1","undefined","undefined","undefined","1","l","0","0","0","92","0","0","92","92","0","0","0","92","92","0","92","Fri Apr 27 10:53:54 2018","#757575","low","6","The main experiment item","yes","","experiment.osexp","/Users/tom/github/sft-fraction/procedure","no","mono","no","24","no","white","no","yes","800","legacy","92","92","0","/Users/tom/github/sft-fraction/results/data/subject-3b.csv","legacy","#757575","low","8","Jazzy James","3.1.9","0","l","NA","space","space","space","l","NA","456","NA","121132","3422","12532","456","NA","2","legacy","1024","2","48000","-16","experiment","3","odd","present","138525","138525","NA","248470","1355","138509","251796","252313","1383","122533","125975","252313","252771","NA","251781","Fraction component detection task","86","50850","93","yes","1280"
"92.5531914894","92.5531914894","545.510638298","545.510638298","#808080","no","legacy","legacy","legacy","0","uniform","1","undefined","undefined","undefined","1","l","0","0","0","93","0","0","93","93","0","0","0","93","93","0","93","Fri Apr 27 10:53:54 2018","#757575","low","7","The main experiment item","yes","","experiment.osexp","/Users/tom/github/sft-fraction/procedure","no","mono","no","24","no","white","no","yes","800","legacy","93","93","0","/Users/tom/github/sft-fraction/results/data/subject-3b.csv","legacy","#757575","low","7","Jazzy James","3.1.9","0","l","NA","space","space","space","l","NA","428","NA","121132","3422","12532","428","NA","2","legacy","1024","2","48000","-16","experiment","3","odd","present","138525","138525","NA","248470","1355","138509","252864","253381","1383","122533","125975","253381","253812","NA","252844","Fraction component detection task","87","51278","94","yes","1280"
"92.6315789474","92.6315789474","544.526315789","544.526315789","#808080","no","legacy","legacy","legacy","0","uniform","1","undefined","undefined","undefined","1","l","0","0","0","94","0","0","94","94","0","0","0","94","94","0","94","Fri Apr 27 10:53:54 2018","#000000","high","4","The main experiment item","yes","","experiment.osexp","/Users/tom/github/sft-fraction/procedure","no","mono","no","24","no","white","no","yes","800","legacy","94","94","0","/Users/tom/github/sft-fraction/results/data/subject-3b.csv","legacy","#757575","low","7","Jazzy James","3.1.9","0","l","NA","space","space","space","l","NA","452","NA","121132","3422","12532","452","NA","2","legacy","1024","2","48000","-16","experiment","3","odd","present","138525","138525","NA","248470","1355","138509","253896","254413","1383","122533","125975","254413","254868","NA","253875","Fraction component detection task","88","51730","95","yes","1280"
"92.7083333333","92.7083333333","544.635416667","544.635416667","#808080","no","legacy","legacy","legacy","0","uniform","1","undefined","undefined","undefined","1","l","0","0","0","95","0","0","95","95","0","0","0","95","95","0","95","Fri Apr 27 10:53:54 2018","#000000","high","3","The main experiment item","yes","","experiment.osexp","/Users/tom/github/sft-fraction/procedure","no","mono","no","24","no","white","no","yes","800","legacy","95","95","0","/Users/tom/github/sft-fraction/results/data/subject-3b.csv","legacy","#000000","high","8","Jazzy James","3.1.9","0","l","NA","space","space","space","l","NA","555","NA","121132","3422","12532","555","NA","2","legacy","1024","2","48000","-16","experiment","3","odd","present","138525","138525","NA","248470","1355","138509","254949","255469","1383","122533","125975","255469","256027","NA","254933","Fraction component detection task","89","52285","96","yes","1280"
"92.7835051546","92.7835051546","545.216494845","545.216494845","#808080","no","legacy","legacy","legacy","0","uniform","1","undefined","undefined","undefined","1","l","0","0","0","96","0","0","96","96","0","0","0","96","96","0","96","Fri Apr 27 10:53:54 2018","#757575","low","3","The main experiment item","yes","","experiment.osexp","/Users/tom/github/sft-fraction/procedure","no","mono","no","24","no","white","no","yes","800","legacy","96","96","0","/Users/tom/github/sft-fraction/results/data/subject-3b.csv","legacy","#757575","low","6","Jazzy James","3.1.9","0","l","NA","space","space","space","l","NA","601","NA","121132","3422","12532","601","NA","2","legacy","1024","2","48000","-16","experiment","3","odd","present","138525","138525","NA","248470","1355","138509","256107","256624","1383","122533","125975","256624","257228","NA","256092","Fraction component detection task","90","52886","97","yes","1280"
"92.8571428571","92.8571428571","544.744897959","544.744897959","#808080","no","legacy","legacy","legacy","0","uniform","1","undefined","undefined","undefined","1","a","0","0","0","97","0","0","97","97","0","0","0","97","97","0","97","Fri Apr 27 10:53:54 2018","#000000","high","2","The main experiment item","yes","","experiment.osexp","/Users/tom/github/sft-fraction/procedure","no","mono","no","24","no","white","no","yes","800","legacy","97","97","0","/Users/tom/github/sft-fraction/results/data/subject-3b.csv","legacy","#000000","high","4","Jazzy James","3.1.9","0","a","NA","space","space","space","a","NA","499","NA","121132","3422","12532","499","NA","2","legacy","1024","2","48000","-16","experiment","3","odd","absent","138525","138525","NA","248470","1355","138509","257312","257830","1383","122533","125975","257830","258332","NA","257291","Fraction component detection task","91","53385","98","yes","1280"
"92.9292929293","92.9292929293","543.909090909","543.909090909","#808080","no","legacy","legacy","legacy","0","uniform","1","undefined","undefined","undefined","1","a","0","0","0","98","0","0","98","98","0","0","0","98","98","0","98","Fri Apr 27 10:53:54 2018","#000000","high","4","The main experiment item","yes","","experiment.osexp","/Users/tom/github/sft-fraction/procedure","no","mono","no","24","no","white","no","yes","800","legacy","98","98","0","/Users/tom/github/sft-fraction/results/data/subject-3b.csv","legacy","#757575","low","4","Jazzy James","3.1.9","0","a","NA","space","space","space","a","NA","462","NA","121132","3422","12532","462","NA","2","legacy","1024","2","48000","-16","experiment","3","odd","absent","138525","138525","NA","248470","1355","138509","258414","258930","1383","122533","125975","258931","259396","NA","258398","Fraction component detection task","92","53847","99","yes","1280"
"93","93","543.39","543.39","#808080","no","legacy","legacy","legacy","0","uniform","1","undefined","undefined","undefined","1","l","0","0","0","99","0","0","99","99","0","0","0","99","99","0","99","Fri Apr 27 10:53:54 2018","#757575","low","6","The main experiment item","yes","","experiment.osexp","/Users/tom/github/sft-fraction/procedure","no","mono","no","24","no","white","no","yes","800","legacy","99","99","0","/Users/tom/github/sft-fraction/results/data/subject-3b.csv","legacy","#000000","high","8","Jazzy James","3.1.9","0","l","NA","space","space","space","l","NA","492","NA","121132","3422","12532","492","NA","2","legacy","1024","2","48000","-16","experiment","3","odd","present","138525","138525","NA","248470","1355","138509","259484","260005","1383","122533","125975","260005","260500","NA","259469","Fraction component detection task","93","54339","100","yes","1280"
"93.0693069307","93.0693069307","542.504950495","542.504950495","#808080","no","legacy","legacy","legacy","0","uniform","1","undefined","undefined","undefined","1","l","0","0","0","100","0","0","100","100","0","0","0","100","100","0","100","Fri Apr 27 10:53:54 2018","#757575","low","4","The main experiment item","yes","","experiment.osexp","/Users/tom/github/sft-fraction/procedure","no","mono","no","24","no","white","no","yes","800","legacy","100","100","0","/Users/tom/github/sft-fraction/results/data/subject-3b.csv","legacy","#000000","high","7","Jazzy James","3.1.9","0","l","NA","space","space","space","l","NA","454","NA","121132","3422","12532","454","NA","2","legacy","1024","2","48000","-16","experiment","3","odd","present","138525","138525","NA","248470","1355","138509","260581","261099","1383","122533","125975","261099","261556","NA","260565","Fraction component detection task","94","54793","101","yes","1280"
"93.137254902","93.137254902","542.774509804","542.774509804","#808080","no","legacy","legacy","legacy","0","uniform","1","undefined","undefined","undefined","1","a","0","0","0","101","0","0","101","101","0","0","0","101","101","0","101","Fri Apr 27 10:53:54 2018","#757575","low","4","The main experiment item","yes","","experiment.osexp","/Users/tom/github/sft-fraction/procedure","no","mono","no","24","no","white","no","yes","800","legacy","101","101","0","/Users/tom/github/sft-fraction/results/data/subject-3b.csv","legacy","#000000","high","4","Jazzy James","3.1.9","0","a","NA","space","space","space","a","NA","570","NA","121132","3422","12532","570","NA","2","legacy","1024","2","48000","-16","experiment","3","odd","absent","138525","138525","NA","248470","1355","138509","261641","262159","1383","122533","125975","262159","262732","NA","261619","Fraction component detection task","95","55363","102","yes","1280"
"93.2038834951","93.2038834951","543.339805825","543.339805825","#808080","no","legacy","legacy","legacy","0","uniform","1","undefined","undefined","undefined","1","a","0","0","0","102","0","0","102","102","0","0","0","102","102","0","102","Fri Apr 27 10:53:54 2018","#757575","low","3","The main experiment item","yes","","experiment.osexp","/Users/tom/github/sft-fraction/procedure","no","mono","no","24","no","white","no","yes","800","legacy","102","102","0","/Users/tom/github/sft-fraction/results/data/subject-3b.csv","legacy","#757575","low","4","Jazzy James","3.1.9","0","a","NA","space","space","space","a","NA","601","NA","121132","3422","12532","601","NA","2","legacy","1024","2","48000","-16","experiment","3","odd","absent","138525","138525","NA","248470","1355","138509","262816","263336","1383","122533","125975","263336","263940","NA","262796","Fraction component detection task","96","55964","103","yes","1280"
"93.2692307692","93.2692307692","542.298076923","542.298076923","#808080","no","legacy","legacy","legacy","0","uniform","1","undefined","undefined","undefined","1","l","0","0","0","103","0","0","103","103","0","0","0","103","103","0","103","Fri Apr 27 10:53:54 2018","#757575","low","6","The main experiment item","yes","","experiment.osexp","/Users/tom/github/sft-fraction/procedure","no","mono","no","24","no","white","no","yes","800","legacy","103","103","0","/Users/tom/github/sft-fraction/results/data/subject-3b.csv","legacy","#757575","low","6","Jazzy James","3.1.9","0","l","NA","space","space","space","l","NA","435","NA","121132","3422","12532","435","NA","2","legacy","1024","2","48000","-16","experiment","3","odd","present","138525","138525","NA","248470","1355","138509","264021","264542","1383","122533","125975","264542","264980","NA","264005","Fraction component detection task","97","56399","104","yes","1280"
"93.3333333333","93.3333333333","541.533333333","541.533333333","#808080","no","legacy","legacy","legacy","0","uniform","1","undefined","undefined","undefined","1","a","0","0","0","104","0","0","104","104","0","0","0","104","104","0","104","Fri Apr 27 10:53:54 2018","#757575","low","3","The main experiment item","yes","","experiment.osexp","/Users/tom/github/sft-fraction/procedure","no","mono","no","24","no","white","no","yes","800","legacy","104","104","0","/Users/tom/github/sft-fraction/results/data/subject-3b.csv","legacy","#000000","high","4","Jazzy James","3.1.9","0","a","NA","space","space","space","a","NA","462","NA","121132","3422","12532","462","NA","2","legacy","1024","2","48000","-16","experiment","3","odd","absent","138525","138525","NA","248470","1355","138509","265061","265578","1383","122533","125975","265579","266044","NA","265045","Fraction component detection task","98","56861","105","yes","1280"
"93.3962264151","93.3962264151","541.433962264","541.433962264","#808080","no","legacy","legacy","legacy","0","uniform","1","undefined","undefined","undefined","1","a","0","0","0","105","0","0","105","105","0","0","0","105","105","0","105","Fri Apr 27 10:53:54 2018","#757575","low","4","The main experiment item","yes","","experiment.osexp","/Users/tom/github/sft-fraction/procedure","no","mono","no","24","no","white","no","yes","800","legacy","105","105","0","/Users/tom/github/sft-fraction/results/data/subject-3b.csv","legacy","#757575","low","2","Jazzy James","3.1.9","0","a","NA","space","space","space","a","NA","531","NA","121132","3422","12532","531","NA","2","legacy","1024","2","48000","-16","experiment","3","odd","absent","138525","138525","NA","248470","1355","138509","266129","266646","1383","122533","125975","266646","267182","NA","266108","Fraction component detection task","99","57392","106","yes","1280"
"93.4579439252","93.4579439252","541.327102804","541.327102804","#808080","no","legacy","legacy","legacy","0","uniform","1","undefined","undefined","undefined","1","l","0","0","0","106","0","0","106","106","0","0","0","106","106","0","106","Fri Apr 27 10:53:54 2018","#000000","high","4","The main experiment item","yes","","experiment.osexp","/Users/tom/github/sft-fraction/procedure","no","mono","no","24","no","white","no","yes","800","legacy","106","106","0","/Users/tom/github/sft-fraction/results/data/subject-3b.csv","legacy","#000000","high","7","Jazzy James","3.1.9","0","l","NA","space","space","space","l","NA","530","NA","121132","3422","12532","530","NA","2","legacy","1024","2","48000","-16","experiment","3","odd","present","138525","138525","NA","248470","1355","138509","267265","267783","1383","122533","125975","267784","268316","NA","267249","Fraction component detection task","100","57922","107","yes","1280"
