"acc","accuracy","average_response_time","avg_rt","background","bidi","canvas_backend","clock_backend","color_backend","compensation","coordinates","correct","correct_instructions1","correct_instructions2","correct_instructions3","correct_keyboard_response","correct_response","count_block_loop","count_block_sequence","count_end_of_experiment","count_error","count_experiment","count_experimental_loop","count_fixation_dot","count_fraction","count_instructions1","count_instructions2","count_instructions3","count_keyboard_response","count_logger","count_rest","count_trial_sequence","datetime","denomColor","denomSalience","denominator","description","disable_garbage_collection","empty_column","experiment_file","experiment_path","font_bold","font_family","font_italic","font_size","font_underline","foreground","form_clicks","fullscreen","height","keyboard_backend","live_row","live_row_block_loop","live_row_experimental_loop","logfile","mouse_backend","numColor","numSalience","numerator","opensesame_codename","opensesame_version","repeat_cycle","response","response_end_of_experiment","response_instructions1","response_instructions2","response_instructions3","response_keyboard_response","response_rest","response_time","response_time_end_of_experiment","response_time_instructions1","response_time_instructions2","response_time_instructions3","response_time_keyboard_response","response_time_rest","round_decimals","sampler_backend","sound_buf_size","sound_channels","sound_freq","sound_sample_size","start","subject_nr","subject_parity","target","time_block_loop","time_block_sequence","time_end_of_experiment","time_error","time_experiment","time_experimental_loop","time_fixation_dot","time_fraction","time_instructions1","time_instructions2","time_instructions3","time_keyboard_response","time_logger","time_rest","time_trial_sequence","title","total_correct","total_response_time","total_responses","uniform_coordinates","width"
"100","100","938","938","#808080","no","legacy","legacy","legacy","0","uniform","1","undefined","undefined","undefined","1","l","0","0","0","0","0","0","0","0","0","0","0","0","0","0","0","Tue May  1 12:57:10 2018","#757575","low","4","The main experiment item","yes","","exp1.osexp","/Users/tom/github/sft-fraction/exp1","no","mono","no","24","no","white","no","yes","800","legacy","0","0","0","/Users/tom/github/sft-fraction/exp1/data/subject-5b.csv","legacy","#000000","high","7","Jazzy James","3.1.9","0","l","NA","space","space","space","l","NA","938","NA","27594","2593","1782","938","NA","2","legacy","1024","2","48000","-16","experiment","5","odd","present","33110","33110","NA","NA","1052","33094","33163","33682","1083","28699","31310","33682","34627","NA","33147","Fraction component detection task","1","938","1","yes","1280"
"100","100","725","725","#808080","no","legacy","legacy","legacy","0","uniform","1","undefined","undefined","undefined","1","a","0","0","0","1","0","0","1","1","0","0","0","1","1","0","1","Tue May  1 12:57:10 2018","#000000","high","3","The main experiment item","yes","","exp1.osexp","/Users/tom/github/sft-fraction/exp1","no","mono","no","24","no","white","no","yes","800","legacy","1","1","0","/Users/tom/github/sft-fraction/exp1/data/subject-5b.csv","legacy","#000000","high","3","Jazzy James","3.1.9","0","a","NA","space","space","space","a","NA","512","NA","27594","2593","1782","512","NA","2","legacy","1024","2","48000","-16","experiment","5","odd","absent","33110","33110","NA","NA","1052","33094","34718","35236","1083","28699","31310","35237","35751","NA","34703","Fraction component detection task","2","1450","2","yes","1280"
"100","100","629.666666667","629.666666667","#808080","no","legacy","legacy","legacy","0","uniform","1","undefined","undefined","undefined","1","a","0","0","0","2","0","0","2","2","0","0","0","2","2","0","2","Tue May  1 12:57:10 2018","#000000","high","2","The main experiment item","yes","","exp1.osexp","/Users/tom/github/sft-fraction/exp1","no","mono","no","24","no","white","no","yes","800","legacy","2","2","0","/Users/tom/github/sft-fraction/exp1/data/subject-5b.csv","legacy","#757575","low","3","Jazzy James","3.1.9","0","a","NA","space","space","space","a","NA","439","NA","27594","2593","1782","439","NA","2","legacy","1024","2","48000","-16","experiment","5","odd","absent","33110","33110","NA","NA","1052","33094","35834","36350","1083","28699","31310","36350","36791","NA","35816","Fraction component detection task","3","1889","3","yes","1280"
"100","100","571.25","571.25","#808080","no","legacy","legacy","legacy","0","uniform","1","undefined","undefined","undefined","1","a","0","0","0","3","0","0","3","3","0","0","0","3","3","0","3","Tue May  1 12:57:10 2018","#000000","high","3","The main experiment item","yes","","exp1.osexp","/Users/tom/github/sft-fraction/exp1","no","mono","no","24","no","white","no","yes","800","legacy","3","3","0","/Users/tom/github/sft-fraction/exp1/data/subject-5b.csv","legacy","#757575","low","3","Jazzy James","3.1.9","0","a","NA","space","space","space","a","NA","396","NA","27594","2593","1782","396","NA","2","legacy","1024","2","48000","-16","experiment","5","odd","absent","33110","33110","NA","NA","1052","33094","36876","37392","1083","28699","31310","37393","37791","NA","36855","Fraction component detection task","4","2285","4","yes","1280"
"80","80","552.8","552.8","#808080","no","legacy","legacy","legacy","0","uniform","0","undefined","undefined","undefined","0","a","0","0","0","4","0","0","4","4","0","0","0","4","4","0","4","Tue May  1 12:57:10 2018","#757575","low","2","The main experiment item","yes","","exp1.osexp","/Users/tom/github/sft-fraction/exp1","no","mono","no","24","no","white","no","yes","800","legacy","4","4","0","/Users/tom/github/sft-fraction/exp1/data/subject-5b.csv","legacy","#757575","low","4","Jazzy James","3.1.9","0","l","NA","space","space","space","l","NA","479","NA","27594","2593","1782","479","NA","2","legacy","1024","2","48000","-16","experiment","5","odd","absent","33110","33110","NA","NA","1052","33094","37882","38398","1083","28699","31310","38399","38879","NA","37863","Fraction component detection task","4","2764","5","yes","1280"
"83.3333333333","83.3333333333","540.666666667","540.666666667","#808080","no","legacy","legacy","legacy","0","uniform","1","undefined","undefined","undefined","1","l","0","0","0","5","0","0","5","5","0","0","0","5","5","0","5","Tue May  1 12:57:10 2018","#757575","low","2","The main experiment item","yes","","exp1.osexp","/Users/tom/github/sft-fraction/exp1","no","mono","no","24","no","white","no","yes","800","legacy","5","5","0","/Users/tom/github/sft-fraction/exp1/data/subject-5b.csv","legacy","#757575","low","6","Jazzy James","3.1.9","0","l","NA","space","space","space","l","NA","480","NA","27594","2593","1782","480","NA","2","legacy","1024","2","48000","-16","experiment","5","odd","present","33110","33110","NA","38899","1052","33094","39977","40494","1083","28699","31310","40494","40976","NA","39960","Fraction component detection task","5","3244","6","yes","1280"
"85.7142857143","85.7142857143","568.714285714","568.714285714","#808080","no","legacy","legacy","legacy","0","uniform","1","undefined","undefined","undefined","1","a","0","0","0","6","0","0","6","6","0","0","0","6","6","0","6","Tue May  1 12:57:10 2018","#000000","high","4","The main experiment item","yes","","exp1.osexp","/Users/tom/github/sft-fraction/exp1","no","mono","no","24","no","white","no","yes","800","legacy","6","6","0","/Users/tom/github/sft-fraction/exp1/data/subject-5b.csv","legacy","#757575","low","2","Jazzy James","3.1.9","0","a","NA","space","space","space","a","NA","737","NA","27594","2593","1782","737","NA","2","legacy","1024","2","48000","-16","experiment","5","odd","absent","33110","33110","NA","38899","1052","33094","41062","41579","1083","28699","31310","41579","42318","NA","41045","Fraction component detection task","6","3981","7","yes","1280"
"87.5","87.5","580.75","580.75","#808080","no","legacy","legacy","legacy","0","uniform","1","undefined","undefined","undefined","1","l","0","0","0","7","0","0","7","7","0","0","0","7","7","0","7","Tue May  1 12:57:10 2018","#757575","low","7","The main experiment item","yes","","exp1.osexp","/Users/tom/github/sft-fraction/exp1","no","mono","no","24","no","white","no","yes","800","legacy","7","7","0","/Users/tom/github/sft-fraction/exp1/data/subject-5b.csv","legacy","#000000","high","4","Jazzy James","3.1.9","0","l","NA","space","space","space","l","NA","665","NA","27594","2593","1782","665","NA","2","legacy","1024","2","48000","-16","experiment","5","odd","present","33110","33110","NA","38899","1052","33094","42405","42923","1083","28699","31310","42923","43590","NA","42389","Fraction component detection task","7","4646","8","yes","1280"
"88.8888888889","88.8888888889","569.333333333","569.333333333","#808080","no","legacy","legacy","legacy","0","uniform","1","undefined","undefined","undefined","1","l","0","0","0","8","0","0","8","8","0","0","0","8","8","0","8","Tue May  1 12:57:10 2018","#000000","high","6","The main experiment item","yes","","exp1.osexp","/Users/tom/github/sft-fraction/exp1","no","mono","no","24","no","white","no","yes","800","legacy","8","8","0","/Users/tom/github/sft-fraction/exp1/data/subject-5b.csv","legacy","#000000","high","2","Jazzy James","3.1.9","0","l","NA","space","space","space","l","NA","478","NA","27594","2593","1782","478","NA","2","legacy","1024","2","48000","-16","experiment","5","odd","present","33110","33110","NA","38899","1052","33094","43673","44192","1083","28699","31310","44192","44671","NA","43656","Fraction component detection task","8","5124","9","yes","1280"
"90","90","552.9","552.9","#808080","no","legacy","legacy","legacy","0","uniform","1","undefined","undefined","undefined","1","l","0","0","0","9","0","0","9","9","0","0","0","9","9","0","9","Tue May  1 12:57:10 2018","#757575","low","7","The main experiment item","yes","","exp1.osexp","/Users/tom/github/sft-fraction/exp1","no","mono","no","24","no","white","no","yes","800","legacy","9","9","0","/Users/tom/github/sft-fraction/exp1/data/subject-5b.csv","legacy","#000000","high","8","Jazzy James","3.1.9","0","l","NA","space","space","space","l","NA","405","NA","27594","2593","1782","405","NA","2","legacy","1024","2","48000","-16","experiment","5","odd","present","33110","33110","NA","38899","1052","33094","44757","45273","1083","28699","31310","45273","45679","NA","44739","Fraction component detection task","9","5529","10","yes","1280"
"90.9090909091","90.9090909091","545.090909091","545.090909091","#808080","no","legacy","legacy","legacy","0","uniform","1","undefined","undefined","undefined","1","a","0","0","0","10","0","0","10","10","0","0","0","10","10","0","10","Tue May  1 12:57:10 2018","#757575","low","2","The main experiment item","yes","","exp1.osexp","/Users/tom/github/sft-fraction/exp1","no","mono","no","24","no","white","no","yes","800","legacy","10","10","0","/Users/tom/github/sft-fraction/exp1/data/subject-5b.csv","legacy","#000000","high","3","Jazzy James","3.1.9","0","a","NA","space","space","space","a","NA","467","NA","27594","2593","1782","467","NA","2","legacy","1024","2","48000","-16","experiment","5","odd","absent","33110","33110","NA","38899","1052","33094","45762","46283","1083","28699","31310","46283","46751","NA","45745","Fraction component detection task","10","5996","11","yes","1280"
"91.6666666667","91.6666666667","536.916666667","536.916666667","#808080","no","legacy","legacy","legacy","0","uniform","1","undefined","undefined","undefined","1","l","0","0","0","11","0","0","11","11","0","0","0","11","11","0","11","Tue May  1 12:57:10 2018","#757575","low","4","The main experiment item","yes","","exp1.osexp","/Users/tom/github/sft-fraction/exp1","no","mono","no","24","no","white","no","yes","800","legacy","11","11","0","/Users/tom/github/sft-fraction/exp1/data/subject-5b.csv","legacy","#757575","low","7","Jazzy James","3.1.9","0","l","NA","space","space","space","l","NA","447","NA","27594","2593","1782","447","NA","2","legacy","1024","2","48000","-16","experiment","5","odd","present","33110","33110","NA","38899","1052","33094","46835","47351","1083","28699","31310","47351","47799","NA","46820","Fraction component detection task","11","6443","12","yes","1280"
"92.3076923077","92.3076923077","527.538461538","527.538461538","#808080","no","legacy","legacy","legacy","0","uniform","1","undefined","undefined","undefined","1","l","0","0","0","12","0","0","12","12","0","0","0","12","12","0","12","Tue May  1 12:57:10 2018","#757575","low","7","The main experiment item","yes","","exp1.osexp","/Users/tom/github/sft-fraction/exp1","no","mono","no","24","no","white","no","yes","800","legacy","12","12","0","/Users/tom/github/sft-fraction/exp1/data/subject-5b.csv","legacy","#757575","low","7","Jazzy James","3.1.9","0","l","NA","space","space","space","l","NA","415","NA","27594","2593","1782","415","NA","2","legacy","1024","2","48000","-16","experiment","5","odd","present","33110","33110","NA","38899","1052","33094","47883","48399","1083","28699","31310","48399","48815","NA","47863","Fraction component detection task","12","6858","13","yes","1280"
"92.8571428571","92.8571428571","524.428571429","524.428571429","#808080","no","legacy","legacy","legacy","0","uniform","1","undefined","undefined","undefined","1","a","0","0","0","13","0","0","13","13","0","0","0","13","13","0","13","Tue May  1 12:57:10 2018","#757575","low","3","The main experiment item","yes","","exp1.osexp","/Users/tom/github/sft-fraction/exp1","no","mono","no","24","no","white","no","yes","800","legacy","13","13","0","/Users/tom/github/sft-fraction/exp1/data/subject-5b.csv","legacy","#000000","high","4","Jazzy James","3.1.9","0","a","NA","space","space","space","a","NA","484","NA","27594","2593","1782","484","NA","2","legacy","1024","2","48000","-16","experiment","5","odd","absent","33110","33110","NA","38899","1052","33094","48901","49418","1083","28699","31310","49418","49904","NA","48881","Fraction component detection task","13","7342","14","yes","1280"
"93.3333333333","93.3333333333","515.666666667","515.666666667","#808080","no","legacy","legacy","legacy","0","uniform","1","undefined","undefined","undefined","1","a","0","0","0","14","0","0","14","14","0","0","0","14","14","0","14","Tue May  1 12:57:10 2018","#757575","low","3","The main experiment item","yes","","exp1.osexp","/Users/tom/github/sft-fraction/exp1","no","mono","no","24","no","white","no","yes","800","legacy","14","14","0","/Users/tom/github/sft-fraction/exp1/data/subject-5b.csv","legacy","#757575","low","2","Jazzy James","3.1.9","0","a","NA","space","space","space","a","NA","393","NA","27594","2593","1782","393","NA","2","legacy","1024","2","48000","-16","experiment","5","odd","absent","33110","33110","NA","38899","1052","33094","49985","50501","1083","28699","31310","50501","50896","NA","49970","Fraction component detection task","14","7735","15","yes","1280"
"93.75","93.75","514.625","514.625","#808080","no","legacy","legacy","legacy","0","uniform","1","undefined","undefined","undefined","1","l","0","0","0","15","0","0","15","15","0","0","0","15","15","0","15","Tue May  1 12:57:10 2018","#757575","low","7","The main experiment item","yes","","exp1.osexp","/Users/tom/github/sft-fraction/exp1","no","mono","no","24","no","white","no","yes","800","legacy","15","15","0","/Users/tom/github/sft-fraction/exp1/data/subject-5b.csv","legacy","#000000","high","7","Jazzy James","3.1.9","0","l","NA","space","space","space","l","NA","499","NA","27594","2593","1782","499","NA","2","legacy","1024","2","48000","-16","experiment","5","odd","present","33110","33110","NA","38899","1052","33094","50975","51491","1083","28699","31310","51491","51992","NA","50959","Fraction component detection task","15","8234","16","yes","1280"
"94.1176470588","94.1176470588","507.647058824","507.647058824","#808080","no","legacy","legacy","legacy","0","uniform","1","undefined","undefined","undefined","1","l","0","0","0","16","0","0","16","16","0","0","0","16","16","0","16","Tue May  1 12:57:10 2018","#000000","high","8","The main experiment item","yes","","exp1.osexp","/Users/tom/github/sft-fraction/exp1","no","mono","no","24","no","white","no","yes","800","legacy","16","16","0","/Users/tom/github/sft-fraction/exp1/data/subject-5b.csv","legacy","#000000","high","8","Jazzy James","3.1.9","0","l","NA","space","space","space","l","NA","396","NA","27594","2593","1782","396","NA","2","legacy","1024","2","48000","-16","experiment","5","odd","present","33110","33110","NA","38899","1052","33094","52074","52594","1083","28699","31310","52594","52992","NA","52058","Fraction component detection task","16","8630","17","yes","1280"
"94.4444444444","94.4444444444","502.111111111","502.111111111","#808080","no","legacy","legacy","legacy","0","uniform","1","undefined","undefined","undefined","1","a","0","0","0","17","0","0","17","17","0","0","0","17","17","0","17","Tue May  1 12:57:10 2018","#757575","low","2","The main experiment item","yes","","exp1.osexp","/Users/tom/github/sft-fraction/exp1","no","mono","no","24","no","white","no","yes","800","legacy","17","17","0","/Users/tom/github/sft-fraction/exp1/data/subject-5b.csv","legacy","#000000","high","4","Jazzy James","3.1.9","0","a","NA","space","space","space","a","NA","408","NA","27594","2593","1782","408","NA","2","legacy","1024","2","48000","-16","experiment","5","odd","absent","33110","33110","NA","38899","1052","33094","53078","53597","1083","28699","31310","53597","54007","NA","53057","Fraction component detection task","17","9038","18","yes","1280"
"94.7368421053","94.7368421053","496.210526316","496.210526316","#808080","no","legacy","legacy","legacy","0","uniform","1","undefined","undefined","undefined","1","a","0","0","0","18","0","0","18","18","0","0","0","18","18","0","18","Tue May  1 12:57:10 2018","#000000","high","2","The main experiment item","yes","","exp1.osexp","/Users/tom/github/sft-fraction/exp1","no","mono","no","24","no","white","no","yes","800","legacy","18","18","0","/Users/tom/github/sft-fraction/exp1/data/subject-5b.csv","legacy","#757575","low","4","Jazzy James","3.1.9","0","a","NA","space","space","space","a","NA","390","NA","27594","2593","1782","390","NA","2","legacy","1024","2","48000","-16","experiment","5","odd","absent","33110","33110","NA","38899","1052","33094","54087","54608","1083","28699","31310","54608","55000","NA","54072","Fraction component detection task","18","9428","19","yes","1280"
"95","95","495.6","495.6","#808080","no","legacy","legacy","legacy","0","uniform","1","undefined","undefined","undefined","1","l","0","0","0","19","0","0","19","19","0","0","0","19","19","0","19","Tue May  1 12:57:10 2018","#757575","low","8","The main experiment item","yes","","exp1.osexp","/Users/tom/github/sft-fraction/exp1","no","mono","no","24","no","white","no","yes","800","legacy","19","19","0","/Users/tom/github/sft-fraction/exp1/data/subject-5b.csv","legacy","#757575","low","6","Jazzy James","3.1.9","0","l","NA","space","space","space","l","NA","484","NA","27594","2593","1782","484","NA","2","legacy","1024","2","48000","-16","experiment","5","odd","present","33110","33110","NA","38899","1052","33094","55084","55601","1083","28699","31310","55601","56087","NA","55063","Fraction component detection task","19","9912","20","yes","1280"
"95.2380952381","95.2380952381","501.380952381","501.380952381","#808080","no","legacy","legacy","legacy","0","uniform","1","undefined","undefined","undefined","1","l","0","0","0","20","0","0","20","20","0","0","0","20","20","0","20","Tue May  1 12:57:10 2018","#757575","low","8","The main experiment item","yes","","exp1.osexp","/Users/tom/github/sft-fraction/exp1","no","mono","no","24","no","white","no","yes","800","legacy","20","20","0","/Users/tom/github/sft-fraction/exp1/data/subject-5b.csv","legacy","#000000","high","2","Jazzy James","3.1.9","0","l","NA","space","space","space","l","NA","617","NA","27594","2593","1782","617","NA","2","legacy","1024","2","48000","-16","experiment","5","odd","present","33110","33110","NA","38899","1052","33094","56173","56692","1083","28699","31310","56692","57311","NA","56152","Fraction component detection task","20","10529","21","yes","1280"
"95.4545454545","95.4545454545","496.409090909","496.409090909","#808080","no","legacy","legacy","legacy","0","uniform","1","undefined","undefined","undefined","1","l","0","0","0","21","0","0","21","21","0","0","0","21","21","0","21","Tue May  1 12:57:10 2018","#000000","high","8","The main experiment item","yes","","exp1.osexp","/Users/tom/github/sft-fraction/exp1","no","mono","no","24","no","white","no","yes","800","legacy","21","21","0","/Users/tom/github/sft-fraction/exp1/data/subject-5b.csv","legacy","#757575","low","8","Jazzy James","3.1.9","0","l","NA","space","space","space","l","NA","392","NA","27594","2593","1782","392","NA","2","legacy","1024","2","48000","-16","experiment","5","odd","present","33110","33110","NA","38899","1052","33094","57399","57917","1083","28699","31310","57917","58311","NA","57379","Fraction component detection task","21","10921","22","yes","1280"
"95.652173913","95.652173913","494.260869565","494.260869565","#808080","no","legacy","legacy","legacy","0","uniform","1","undefined","undefined","undefined","1","a","0","0","0","22","0","0","22","22","0","0","0","22","22","0","22","Tue May  1 12:57:10 2018","#000000","high","2","The main experiment item","yes","","exp1.osexp","/Users/tom/github/sft-fraction/exp1","no","mono","no","24","no","white","no","yes","800","legacy","22","22","0","/Users/tom/github/sft-fraction/exp1/data/subject-5b.csv","legacy","#757575","low","2","Jazzy James","3.1.9","0","a","NA","space","space","space","a","NA","447","NA","27594","2593","1782","447","NA","2","legacy","1024","2","48000","-16","experiment","5","odd","absent","33110","33110","NA","38899","1052","33094","58393","58910","1083","28699","31310","58910","59359","NA","58377","Fraction component detection task","22","11368","23","yes","1280"
"95.8333333333","95.8333333333","496.625","496.625","#808080","no","legacy","legacy","legacy","0","uniform","1","undefined","undefined","undefined","1","l","0","0","0","23","0","0","23","23","0","0","0","23","23","0","23","Tue May  1 12:57:10 2018","#000000","high","2","The main experiment item","yes","","exp1.osexp","/Users/tom/github/sft-fraction/exp1","no","mono","no","24","no","white","no","yes","800","legacy","23","23","0","/Users/tom/github/sft-fraction/exp1/data/subject-5b.csv","legacy","#757575","low","6","Jazzy James","3.1.9","0","l","NA","space","space","space","l","NA","551","NA","27594","2593","1782","551","NA","2","legacy","1024","2","48000","-16","experiment","5","odd","present","33110","33110","NA","38899","1052","33094","59448","59966","1083","28699","31310","59966","60519","NA","59432","Fraction component detection task","23","11919","24","yes","1280"
"96","96","496.8","496.8","#808080","no","legacy","legacy","legacy","0","uniform","1","undefined","undefined","undefined","1","l","0","0","0","24","0","0","24","24","0","0","0","24","24","0","24","Tue May  1 12:57:10 2018","#757575","low","6","The main experiment item","yes","","exp1.osexp","/Users/tom/github/sft-fraction/exp1","no","mono","no","24","no","white","no","yes","800","legacy","24","24","0","/Users/tom/github/sft-fraction/exp1/data/subject-5b.csv","legacy","#000000","high","2","Jazzy James","3.1.9","0","l","NA","space","space","space","l","NA","501","NA","27594","2593","1782","501","NA","2","legacy","1024","2","48000","-16","experiment","5","odd","present","33110","33110","NA","38899","1052","33094","60608","61129","1083","28699","31310","61129","61632","NA","60588","Fraction component detection task","24","12420","25","yes","1280"
"96.1538461538","96.1538461538","495.884615385","495.884615385","#808080","no","legacy","legacy","legacy","0","uniform","1","undefined","undefined","undefined","1","l","0","0","0","25","0","0","25","25","0","0","0","25","25","0","25","Tue May  1 12:57:10 2018","#000000","high","6","The main experiment item","yes","","exp1.osexp","/Users/tom/github/sft-fraction/exp1","no","mono","no","24","no","white","no","yes","800","legacy","25","25","0","/Users/tom/github/sft-fraction/exp1/data/subject-5b.csv","legacy","#757575","low","8","Jazzy James","3.1.9","0","l","NA","space","space","space","l","NA","473","NA","27594","2593","1782","473","NA","2","legacy","1024","2","48000","-16","experiment","5","odd","present","33110","33110","NA","38899","1052","33094","61712","62229","1083","28699","31310","62229","62704","NA","61697","Fraction component detection task","25","12893","26","yes","1280"
"96.2962962963","96.2962962963","494.814814815","494.814814815","#808080","no","legacy","legacy","legacy","0","uniform","1","undefined","undefined","undefined","1","a","0","0","0","26","0","0","26","26","0","0","0","26","26","0","26","Tue May  1 12:57:10 2018","#757575","low","2","The main experiment item","yes","","exp1.osexp","/Users/tom/github/sft-fraction/exp1","no","mono","no","24","no","white","no","yes","800","legacy","26","26","0","/Users/tom/github/sft-fraction/exp1/data/subject-5b.csv","legacy","#757575","low","3","Jazzy James","3.1.9","0","a","NA","space","space","space","a","NA","467","NA","27594","2593","1782","467","NA","2","legacy","1024","2","48000","-16","experiment","5","odd","absent","33110","33110","NA","38899","1052","33094","62792","63308","1083","28699","31310","63308","63776","NA","62769","Fraction component detection task","26","13360","27","yes","1280"
"92.8571428571","92.8571428571","499.392857143","499.392857143","#808080","no","legacy","legacy","legacy","0","uniform","0","undefined","undefined","undefined","0","a","0","0","0","27","0","0","27","27","0","0","0","27","27","0","27","Tue May  1 12:57:10 2018","#757575","low","2","The main experiment item","yes","","exp1.osexp","/Users/tom/github/sft-fraction/exp1","no","mono","no","24","no","white","no","yes","800","legacy","27","27","0","/Users/tom/github/sft-fraction/exp1/data/subject-5b.csv","legacy","#757575","low","4","Jazzy James","3.1.9","0","l","NA","space","space","space","l","NA","623","NA","27594","2593","1782","623","NA","2","legacy","1024","2","48000","-16","experiment","5","odd","absent","33110","33110","NA","38899","1052","33094","63867","64383","1083","28699","31310","64383","65008","NA","63847","Fraction component detection task","26","13983","28","yes","1280"
"93.1034482759","93.1034482759","504.344827586","504.344827586","#808080","no","legacy","legacy","legacy","0","uniform","1","undefined","undefined","undefined","1","a","0","0","0","28","0","0","28","28","0","0","0","28","28","0","28","Tue May  1 12:57:10 2018","#757575","low","4","The main experiment item","yes","","exp1.osexp","/Users/tom/github/sft-fraction/exp1","no","mono","no","24","no","white","no","yes","800","legacy","28","28","0","/Users/tom/github/sft-fraction/exp1/data/subject-5b.csv","legacy","#757575","low","3","Jazzy James","3.1.9","0","a","NA","space","space","space","a","NA","643","NA","27594","2593","1782","643","NA","2","legacy","1024","2","48000","-16","experiment","5","odd","absent","33110","33110","NA","65033","1052","33094","66118","66635","1083","28699","31310","66635","67280","NA","66099","Fraction component detection task","27","14626","29","yes","1280"
"93.3333333333","93.3333333333","502.966666667","502.966666667","#808080","no","legacy","legacy","legacy","0","uniform","1","undefined","undefined","undefined","1","a","0","0","0","29","0","0","29","29","0","0","0","29","29","0","29","Tue May  1 12:57:10 2018","#757575","low","4","The main experiment item","yes","","exp1.osexp","/Users/tom/github/sft-fraction/exp1","no","mono","no","24","no","white","no","yes","800","legacy","29","29","0","/Users/tom/github/sft-fraction/exp1/data/subject-5b.csv","legacy","#000000","high","2","Jazzy James","3.1.9","0","a","NA","space","space","space","a","NA","463","NA","27594","2593","1782","463","NA","2","legacy","1024","2","48000","-16","experiment","5","odd","absent","33110","33110","NA","65033","1052","33094","67361","67879","1083","28699","31310","67879","68344","NA","67346","Fraction component detection task","28","15089","30","yes","1280"
"93.5483870968","93.5483870968","501.032258065","501.032258065","#808080","no","legacy","legacy","legacy","0","uniform","1","undefined","undefined","undefined","1","a","0","0","0","30","0","0","30","30","0","0","0","30","30","0","30","Tue May  1 12:57:10 2018","#757575","low","3","The main experiment item","yes","","exp1.osexp","/Users/tom/github/sft-fraction/exp1","no","mono","no","24","no","white","no","yes","800","legacy","30","30","0","/Users/tom/github/sft-fraction/exp1/data/subject-5b.csv","legacy","#000000","high","2","Jazzy James","3.1.9","0","a","NA","space","space","space","a","NA","443","NA","27594","2593","1782","443","NA","2","legacy","1024","2","48000","-16","experiment","5","odd","absent","33110","33110","NA","65033","1052","33094","68435","68955","1083","28699","31310","68955","69400","NA","68414","Fraction component detection task","29","15532","31","yes","1280"
"93.75","93.75","501.5","501.5","#808080","no","legacy","legacy","legacy","0","uniform","1","undefined","undefined","undefined","1","l","0","0","0","31","0","0","31","31","0","0","0","31","31","0","31","Tue May  1 12:57:10 2018","#757575","low","7","The main experiment item","yes","","exp1.osexp","/Users/tom/github/sft-fraction/exp1","no","mono","no","24","no","white","no","yes","800","legacy","31","31","0","/Users/tom/github/sft-fraction/exp1/data/subject-5b.csv","legacy","#757575","low","8","Jazzy James","3.1.9","0","l","NA","space","space","space","l","NA","516","NA","27594","2593","1782","516","NA","2","legacy","1024","2","48000","-16","experiment","5","odd","present","33110","33110","NA","65033","1052","33094","69498","70018","1083","28699","31310","70018","70536","NA","69477","Fraction component detection task","30","16048","32","yes","1280"
"93.9393939394","93.9393939394","499.484848485","499.484848485","#808080","no","legacy","legacy","legacy","0","uniform","1","undefined","undefined","undefined","1","l","0","0","0","32","0","0","32","32","0","0","0","32","32","0","32","Tue May  1 12:57:10 2018","#757575","low","2","The main experiment item","yes","","exp1.osexp","/Users/tom/github/sft-fraction/exp1","no","mono","no","24","no","white","no","yes","800","legacy","32","32","0","/Users/tom/github/sft-fraction/exp1/data/subject-5b.csv","legacy","#000000","high","7","Jazzy James","3.1.9","0","l","NA","space","space","space","l","NA","435","NA","27594","2593","1782","435","NA","2","legacy","1024","2","48000","-16","experiment","5","odd","present","33110","33110","NA","65033","1052","33094","70626","71147","1083","28699","31310","71147","71584","NA","70605","Fraction component detection task","31","16483","33","yes","1280"
"94.1176470588","94.1176470588","500.147058824","500.147058824","#808080","no","legacy","legacy","legacy","0","uniform","1","undefined","undefined","undefined","1","a","0","0","0","33","0","0","33","33","0","0","0","33","33","0","33","Tue May  1 12:57:10 2018","#000000","high","4","The main experiment item","yes","","exp1.osexp","/Users/tom/github/sft-fraction/exp1","no","mono","no","24","no","white","no","yes","800","legacy","33","33","0","/Users/tom/github/sft-fraction/exp1/data/subject-5b.csv","legacy","#757575","low","3","Jazzy James","3.1.9","0","a","NA","space","space","space","a","NA","522","NA","27594","2593","1782","522","NA","2","legacy","1024","2","48000","-16","experiment","5","odd","absent","33110","33110","NA","65033","1052","33094","71671","72188","1083","28699","31310","72189","72713","NA","71649","Fraction component detection task","32","17005","34","yes","1280"
"94.2857142857","94.2857142857","505.314285714","505.314285714","#808080","no","legacy","legacy","legacy","0","uniform","1","undefined","undefined","undefined","1","l","0","0","0","34","0","0","34","34","0","0","0","34","34","0","34","Tue May  1 12:57:10 2018","#000000","high","7","The main experiment item","yes","","exp1.osexp","/Users/tom/github/sft-fraction/exp1","no","mono","no","24","no","white","no","yes","800","legacy","34","34","0","/Users/tom/github/sft-fraction/exp1/data/subject-5b.csv","legacy","#757575","low","3","Jazzy James","3.1.9","0","l","NA","space","space","space","l","NA","681","NA","27594","2593","1782","681","NA","2","legacy","1024","2","48000","-16","experiment","5","odd","present","33110","33110","NA","65033","1052","33094","72793","73310","1083","28699","31310","73310","73993","NA","72778","Fraction component detection task","33","17686","35","yes","1280"
"94.4444444444","94.4444444444","503.083333333","503.083333333","#808080","no","legacy","legacy","legacy","0","uniform","1","undefined","undefined","undefined","1","l","0","0","0","35","0","0","35","35","0","0","0","35","35","0","35","Tue May  1 12:57:10 2018","#000000","high","3","The main experiment item","yes","","exp1.osexp","/Users/tom/github/sft-fraction/exp1","no","mono","no","24","no","white","no","yes","800","legacy","35","35","0","/Users/tom/github/sft-fraction/exp1/data/subject-5b.csv","legacy","#757575","low","7","Jazzy James","3.1.9","0","l","NA","space","space","space","l","NA","425","NA","27594","2593","1782","425","NA","2","legacy","1024","2","48000","-16","experiment","5","odd","present","33110","33110","NA","65033","1052","33094","74079","74597","1083","28699","31310","74597","75026","NA","74063","Fraction component detection task","34","18111","36","yes","1280"
"94.5945945946","94.5945945946","503.837837838","503.837837838","#808080","no","legacy","legacy","legacy","0","uniform","1","undefined","undefined","undefined","1","l","0","0","0","36","0","0","36","36","0","0","0","36","36","0","36","Tue May  1 12:57:10 2018","#757575","low","8","The main experiment item","yes","","exp1.osexp","/Users/tom/github/sft-fraction/exp1","no","mono","no","24","no","white","no","yes","800","legacy","36","36","0","/Users/tom/github/sft-fraction/exp1/data/subject-5b.csv","legacy","#757575","low","8","Jazzy James","3.1.9","0","l","NA","space","space","space","l","NA","531","NA","27594","2593","1782","531","NA","2","legacy","1024","2","48000","-16","experiment","5","odd","present","33110","33110","NA","65033","1052","33094","75114","75635","1083","28699","31310","75635","76169","NA","75090","Fraction component detection task","35","18642","37","yes","1280"
"94.7368421053","94.7368421053","503.710526316","503.710526316","#808080","no","legacy","legacy","legacy","0","uniform","1","undefined","undefined","undefined","1","l","0","0","0","37","0","0","37","37","0","0","0","37","37","0","37","Tue May  1 12:57:10 2018","#000000","high","8","The main experiment item","yes","","exp1.osexp","/Users/tom/github/sft-fraction/exp1","no","mono","no","24","no","white","no","yes","800","legacy","37","37","0","/Users/tom/github/sft-fraction/exp1/data/subject-5b.csv","legacy","#757575","low","6","Jazzy James","3.1.9","0","l","NA","space","space","space","l","NA","499","NA","27594","2593","1782","499","NA","2","legacy","1024","2","48000","-16","experiment","5","odd","present","33110","33110","NA","65033","1052","33094","76253","76771","1083","28699","31310","76771","77272","NA","76236","Fraction component detection task","36","19141","38","yes","1280"
"94.8717948718","94.8717948718","503.923076923","503.923076923","#808080","no","legacy","legacy","legacy","0","uniform","1","undefined","undefined","undefined","1","a","0","0","0","38","0","0","38","38","0","0","0","38","38","0","38","Tue May  1 12:57:10 2018","#000000","high","4","The main experiment item","yes","","exp1.osexp","/Users/tom/github/sft-fraction/exp1","no","mono","no","24","no","white","no","yes","800","legacy","38","38","0","/Users/tom/github/sft-fraction/exp1/data/subject-5b.csv","legacy","#757575","low","3","Jazzy James","3.1.9","0","a","NA","space","space","space","a","NA","512","NA","27594","2593","1782","512","NA","2","legacy","1024","2","48000","-16","experiment","5","odd","absent","33110","33110","NA","65033","1052","33094","77353","77870","1083","28699","31310","77870","78384","NA","77338","Fraction component detection task","37","19653","39","yes","1280"
"95","95","503.775","503.775","#808080","no","legacy","legacy","legacy","0","uniform","1","undefined","undefined","undefined","1","l","0","0","0","39","0","0","39","39","0","0","0","39","39","0","39","Tue May  1 12:57:10 2018","#000000","high","7","The main experiment item","yes","","exp1.osexp","/Users/tom/github/sft-fraction/exp1","no","mono","no","24","no","white","no","yes","800","legacy","39","39","0","/Users/tom/github/sft-fraction/exp1/data/subject-5b.csv","legacy","#000000","high","8","Jazzy James","3.1.9","0","l","NA","space","space","space","l","NA","498","NA","27594","2593","1782","498","NA","2","legacy","1024","2","48000","-16","experiment","5","odd","present","33110","33110","NA","65033","1052","33094","78466","78988","1083","28699","31310","78988","79488","NA","78449","Fraction component detection task","38","20151","40","yes","1280"
"95.1219512195","95.1219512195","502.780487805","502.780487805","#808080","no","legacy","legacy","legacy","0","uniform","1","undefined","undefined","undefined","1","a","0","0","0","40","0","0","40","40","0","0","0","40","40","0","40","Tue May  1 12:57:10 2018","#000000","high","4","The main experiment item","yes","","exp1.osexp","/Users/tom/github/sft-fraction/exp1","no","mono","no","24","no","white","no","yes","800","legacy","40","40","0","/Users/tom/github/sft-fraction/exp1/data/subject-5b.csv","legacy","#000000","high","2","Jazzy James","3.1.9","0","a","NA","space","space","space","a","NA","463","NA","27594","2593","1782","463","NA","2","legacy","1024","2","48000","-16","experiment","5","odd","absent","33110","33110","NA","65033","1052","33094","79579","80095","1083","28699","31310","80095","80561","NA","79559","Fraction component detection task","39","20614","41","yes","1280"
"95.2380952381","95.2380952381","500.428571429","500.428571429","#808080","no","legacy","legacy","legacy","0","uniform","1","undefined","undefined","undefined","1","a","0","0","0","41","0","0","41","41","0","0","0","41","41","0","41","Tue May  1 12:57:10 2018","#000000","high","3","The main experiment item","yes","","exp1.osexp","/Users/tom/github/sft-fraction/exp1","no","mono","no","24","no","white","no","yes","800","legacy","41","41","0","/Users/tom/github/sft-fraction/exp1/data/subject-5b.csv","legacy","#000000","high","2","Jazzy James","3.1.9","0","a","NA","space","space","space","a","NA","404","NA","27594","2593","1782","404","NA","2","legacy","1024","2","48000","-16","experiment","5","odd","absent","33110","33110","NA","65033","1052","33094","80650","81170","1083","28699","31310","81170","81576","NA","80631","Fraction component detection task","40","21018","42","yes","1280"
"95.3488372093","95.3488372093","500.093023256","500.093023256","#808080","no","legacy","legacy","legacy","0","uniform","1","undefined","undefined","undefined","1","a","0","0","0","42","0","0","42","42","0","0","0","42","42","0","42","Tue May  1 12:57:10 2018","#757575","low","3","The main experiment item","yes","","exp1.osexp","/Users/tom/github/sft-fraction/exp1","no","mono","no","24","no","white","no","yes","800","legacy","42","42","0","/Users/tom/github/sft-fraction/exp1/data/subject-5b.csv","legacy","#757575","low","4","Jazzy James","3.1.9","0","a","NA","space","space","space","a","NA","486","NA","27594","2593","1782","486","NA","2","legacy","1024","2","48000","-16","experiment","5","odd","absent","33110","33110","NA","65033","1052","33094","81656","82176","1083","28699","31310","82176","82665","NA","81639","Fraction component detection task","41","21504","43","yes","1280"
"95.4545454545","95.4545454545","517.613636364","517.613636364","#808080","no","legacy","legacy","legacy","0","uniform","1","undefined","undefined","undefined","1","l","0","0","0","43","0","0","43","43","0","0","0","43","43","0","43","Tue May  1 12:57:10 2018","#000000","high","8","The main experiment item","yes","","exp1.osexp","/Users/tom/github/sft-fraction/exp1","no","mono","no","24","no","white","no","yes","800","legacy","43","43","0","/Users/tom/github/sft-fraction/exp1/data/subject-5b.csv","legacy","#757575","low","3","Jazzy James","3.1.9","0","l","NA","space","space","space","l","NA","1271","NA","27594","2593","1782","1271","NA","2","legacy","1024","2","48000","-16","experiment","5","odd","present","33110","33110","NA","65033","1052","33094","82755","83272","1083","28699","31310","83272","84545","NA","82735","Fraction component detection task","42","22775","44","yes","1280"
"95.5555555556","95.5555555556","515.177777778","515.177777778","#808080","no","legacy","legacy","legacy","0","uniform","1","undefined","undefined","undefined","1","l","0","0","0","44","0","0","44","44","0","0","0","44","44","0","44","Tue May  1 12:57:10 2018","#000000","high","7","The main experiment item","yes","","exp1.osexp","/Users/tom/github/sft-fraction/exp1","no","mono","no","24","no","white","no","yes","800","legacy","44","44","0","/Users/tom/github/sft-fraction/exp1/data/subject-5b.csv","legacy","#000000","high","7","Jazzy James","3.1.9","0","l","NA","space","space","space","l","NA","408","NA","27594","2593","1782","408","NA","2","legacy","1024","2","48000","-16","experiment","5","odd","present","33110","33110","NA","65033","1052","33094","84626","85142","1083","28699","31310","85143","85553","NA","84610","Fraction component detection task","43","23183","45","yes","1280"
"95.652173913","95.652173913","515.391304348","515.391304348","#808080","no","legacy","legacy","legacy","0","uniform","1","undefined","undefined","undefined","1","a","0","0","0","45","0","0","45","45","0","0","0","45","45","0","45","Tue May  1 12:57:10 2018","#000000","high","4","The main experiment item","yes","","exp1.osexp","/Users/tom/github/sft-fraction/exp1","no","mono","no","24","no","white","no","yes","800","legacy","45","45","0","/Users/tom/github/sft-fraction/exp1/data/subject-5b.csv","legacy","#757575","low","2","Jazzy James","3.1.9","0","a","NA","space","space","space","a","NA","525","NA","27594","2593","1782","525","NA","2","legacy","1024","2","48000","-16","experiment","5","odd","absent","33110","33110","NA","65033","1052","33094","85639","86155","1083","28699","31310","86155","86682","NA","85618","Fraction component detection task","44","23708","46","yes","1280"
"93.6170212766","93.6170212766","514.042553191","514.042553191","#808080","no","legacy","legacy","legacy","0","uniform","0","undefined","undefined","undefined","0","l","0","0","0","46","0","0","46","46","0","0","0","46","46","0","46","Tue May  1 12:57:10 2018","#757575","low","8","The main experiment item","yes","","exp1.osexp","/Users/tom/github/sft-fraction/exp1","no","mono","no","24","no","white","no","yes","800","legacy","46","46","0","/Users/tom/github/sft-fraction/exp1/data/subject-5b.csv","legacy","#757575","low","2","Jazzy James","3.1.9","0","a","NA","space","space","space","a","NA","452","NA","27594","2593","1782","452","NA","2","legacy","1024","2","48000","-16","experiment","5","odd","present","33110","33110","NA","65033","1052","33094","86763","87284","1083","28699","31310","87284","87738","NA","86747","Fraction component detection task","44","24160","47","yes","1280"
"93.75","93.75","514.541666667","514.541666667","#808080","no","legacy","legacy","legacy","0","uniform","1","undefined","undefined","undefined","1","l","0","0","0","47","0","0","47","47","0","0","0","47","47","0","47","Tue May  1 12:57:10 2018","#000000","high","2","The main experiment item","yes","","exp1.osexp","/Users/tom/github/sft-fraction/exp1","no","mono","no","24","no","white","no","yes","800","legacy","47","47","0","/Users/tom/github/sft-fraction/exp1/data/subject-5b.csv","legacy","#757575","low","7","Jazzy James","3.1.9","0","l","NA","space","space","space","l","NA","538","NA","27594","2593","1782","538","NA","2","legacy","1024","2","48000","-16","experiment","5","odd","present","33110","33110","NA","87757","1052","33094","88841","89358","1083","28699","31310","89358","89898","NA","88826","Fraction component detection task","45","24698","48","yes","1280"
"93.8775510204","93.8775510204","515.183673469","515.183673469","#808080","no","legacy","legacy","legacy","0","uniform","1","undefined","undefined","undefined","1","l","0","0","0","48","0","0","48","48","0","0","0","48","48","0","48","Tue May  1 12:57:10 2018","#000000","high","6","The main experiment item","yes","","exp1.osexp","/Users/tom/github/sft-fraction/exp1","no","mono","no","24","no","white","no","yes","800","legacy","48","48","0","/Users/tom/github/sft-fraction/exp1/data/subject-5b.csv","legacy","#757575","low","3","Jazzy James","3.1.9","0","l","NA","space","space","space","l","NA","546","NA","27594","2593","1782","546","NA","2","legacy","1024","2","48000","-16","experiment","5","odd","present","33110","33110","NA","87757","1052","33094","89982","90501","1083","28699","31310","90501","91049","NA","89967","Fraction component detection task","46","25244","49","yes","1280"
"94","94","515.02","515.02","#808080","no","legacy","legacy","legacy","0","uniform","1","undefined","undefined","undefined","1","a","0","0","0","49","0","0","49","49","0","0","0","49","49","0","49","Tue May  1 12:57:10 2018","#000000","high","2","The main experiment item","yes","","exp1.osexp","/Users/tom/github/sft-fraction/exp1","no","mono","no","24","no","white","no","yes","800","legacy","49","49","0","/Users/tom/github/sft-fraction/exp1/data/subject-5b.csv","legacy","#000000","high","3","Jazzy James","3.1.9","0","a","NA","space","space","space","a","NA","507","NA","27594","2593","1782","507","NA","2","legacy","1024","2","48000","-16","experiment","5","odd","absent","33110","33110","NA","87757","1052","33094","91132","91652","1083","28699","31310","91652","92161","NA","91112","Fraction component detection task","47","25751","50","yes","1280"
"94.1176470588","94.1176470588","514.509803922","514.509803922","#808080","no","legacy","legacy","legacy","0","uniform","1","undefined","undefined","undefined","1","l","0","0","0","50","0","0","50","50","0","0","0","50","50","0","50","Tue May  1 12:57:10 2018","#757575","low","7","The main experiment item","yes","","exp1.osexp","/Users/tom/github/sft-fraction/exp1","no","mono","no","24","no","white","no","yes","800","legacy","50","50","0","/Users/tom/github/sft-fraction/exp1/data/subject-5b.csv","legacy","#000000","high","6","Jazzy James","3.1.9","0","l","NA","space","space","space","l","NA","489","NA","27594","2593","1782","489","NA","2","legacy","1024","2","48000","-16","experiment","5","odd","present","33110","33110","NA","87757","1052","33094","92247","92766","1083","28699","31310","92766","93257","NA","92227","Fraction component detection task","48","26240","51","yes","1280"
"94.2307692308","94.2307692308","513.019230769","513.019230769","#808080","no","legacy","legacy","legacy","0","uniform","1","undefined","undefined","undefined","1","l","0","0","0","51","0","0","51","51","0","0","0","51","51","0","51","Tue May  1 12:57:10 2018","#757575","low","4","The main experiment item","yes","","exp1.osexp","/Users/tom/github/sft-fraction/exp1","no","mono","no","24","no","white","no","yes","800","legacy","51","51","0","/Users/tom/github/sft-fraction/exp1/data/subject-5b.csv","legacy","#000000","high","6","Jazzy James","3.1.9","0","l","NA","space","space","space","l","NA","437","NA","27594","2593","1782","437","NA","2","legacy","1024","2","48000","-16","experiment","5","odd","present","33110","33110","NA","87757","1052","33094","93339","93857","1083","28699","31310","93858","94298","NA","93322","Fraction component detection task","49","26677","52","yes","1280"
"94.3396226415","94.3396226415","512.981132075","512.981132075","#808080","no","legacy","legacy","legacy","0","uniform","1","undefined","undefined","undefined","1","a","0","0","0","52","0","0","52","52","0","0","0","52","52","0","52","Tue May  1 12:57:10 2018","#000000","high","4","The main experiment item","yes","","exp1.osexp","/Users/tom/github/sft-fraction/exp1","no","mono","no","24","no","white","no","yes","800","legacy","52","52","0","/Users/tom/github/sft-fraction/exp1/data/subject-5b.csv","legacy","#000000","high","4","Jazzy James","3.1.9","0","a","NA","space","space","space","a","NA","511","NA","27594","2593","1782","511","NA","2","legacy","1024","2","48000","-16","experiment","5","odd","absent","33110","33110","NA","87757","1052","33094","94386","94904","1083","28699","31310","94904","95417","NA","94368","Fraction component detection task","50","27188","53","yes","1280"
"94.4444444444","94.4444444444","512.092592593","512.092592593","#808080","no","legacy","legacy","legacy","0","uniform","1","undefined","undefined","undefined","1","a","0","0","0","53","0","0","53","53","0","0","0","53","53","0","53","Tue May  1 12:57:10 2018","#000000","high","4","The main experiment item","yes","","exp1.osexp","/Users/tom/github/sft-fraction/exp1","no","mono","no","24","no","white","no","yes","800","legacy","53","53","0","/Users/tom/github/sft-fraction/exp1/data/subject-5b.csv","legacy","#757575","low","3","Jazzy James","3.1.9","0","a","NA","space","space","space","a","NA","465","NA","27594","2593","1782","465","NA","2","legacy","1024","2","48000","-16","experiment","5","odd","absent","33110","33110","NA","87757","1052","33094","95498","96014","1083","28699","31310","96014","96481","NA","95482","Fraction component detection task","51","27653","54","yes","1280"
"94.5454545455","94.5454545455","512.2","512.2","#808080","no","legacy","legacy","legacy","0","uniform","1","undefined","undefined","undefined","1","a","0","0","0","54","0","0","54","54","0","0","0","54","54","0","54","Tue May  1 12:57:10 2018","#757575","low","2","The main experiment item","yes","","exp1.osexp","/Users/tom/github/sft-fraction/exp1","no","mono","no","24","no","white","no","yes","800","legacy","54","54","0","/Users/tom/github/sft-fraction/exp1/data/subject-5b.csv","legacy","#000000","high","2","Jazzy James","3.1.9","0","a","NA","space","space","space","a","NA","518","NA","27594","2593","1782","518","NA","2","legacy","1024","2","48000","-16","experiment","5","odd","absent","33110","33110","NA","87757","1052","33094","96564","97080","1083","28699","31310","97081","97601","NA","96548","Fraction component detection task","52","28171","55","yes","1280"
"94.6428571429","94.6428571429","510.857142857","510.857142857","#808080","no","legacy","legacy","legacy","0","uniform","1","undefined","undefined","undefined","1","a","0","0","0","55","0","0","55","55","0","0","0","55","55","0","55","Tue May  1 12:57:10 2018","#000000","high","4","The main experiment item","yes","","exp1.osexp","/Users/tom/github/sft-fraction/exp1","no","mono","no","24","no","white","no","yes","800","legacy","55","55","0","/Users/tom/github/sft-fraction/exp1/data/subject-5b.csv","legacy","#000000","high","4","Jazzy James","3.1.9","0","a","NA","space","space","space","a","NA","437","NA","27594","2593","1782","437","NA","2","legacy","1024","2","48000","-16","experiment","5","odd","absent","33110","33110","NA","87757","1052","33094","97690","98210","1083","28699","31310","98210","98649","NA","97672","Fraction component detection task","53","28608","56","yes","1280"
"94.7368421053","94.7368421053","509.438596491","509.438596491","#808080","no","legacy","legacy","legacy","0","uniform","1","undefined","undefined","undefined","1","a","0","0","0","56","0","0","56","56","0","0","0","56","56","0","56","Tue May  1 12:57:10 2018","#000000","high","3","The main experiment item","yes","","exp1.osexp","/Users/tom/github/sft-fraction/exp1","no","mono","no","24","no","white","no","yes","800","legacy","56","56","0","/Users/tom/github/sft-fraction/exp1/data/subject-5b.csv","legacy","#000000","high","2","Jazzy James","3.1.9","0","a","NA","space","space","space","a","NA","430","NA","27594","2593","1782","430","NA","2","legacy","1024","2","48000","-16","experiment","5","odd","absent","33110","33110","NA","87757","1052","33094","98738","99258","1083","28699","31310","99258","99690","NA","98717","Fraction component detection task","54","29038","57","yes","1280"
"94.8275862069","94.8275862069","508.120689655","508.120689655","#808080","no","legacy","legacy","legacy","0","uniform","1","undefined","undefined","undefined","1","a","0","0","0","57","0","0","57","57","0","0","0","57","57","0","57","Tue May  1 12:57:10 2018","#000000","high","3","The main experiment item","yes","","exp1.osexp","/Users/tom/github/sft-fraction/exp1","no","mono","no","24","no","white","no","yes","800","legacy","57","57","0","/Users/tom/github/sft-fraction/exp1/data/subject-5b.csv","legacy","#000000","high","4","Jazzy James","3.1.9","0","a","NA","space","space","space","a","NA","433","NA","27594","2593","1782","433","NA","2","legacy","1024","2","48000","-16","experiment","5","odd","absent","33110","33110","NA","87757","1052","33094","99779","100295","1083","28699","31310","100295","100731","NA","99757","Fraction component detection task","55","29471","58","yes","1280"
"94.9152542373","94.9152542373","506.457627119","506.457627119","#808080","no","legacy","legacy","legacy","0","uniform","1","undefined","undefined","undefined","1","a","0","0","0","58","0","0","58","58","0","0","0","58","58","0","58","Tue May  1 12:57:10 2018","#000000","high","2","The main experiment item","yes","","exp1.osexp","/Users/tom/github/sft-fraction/exp1","no","mono","no","24","no","white","no","yes","800","legacy","58","58","0","/Users/tom/github/sft-fraction/exp1/data/subject-5b.csv","legacy","#000000","high","4","Jazzy James","3.1.9","0","a","NA","space","space","space","a","NA","410","NA","27594","2593","1782","410","NA","2","legacy","1024","2","48000","-16","experiment","5","odd","absent","33110","33110","NA","87757","1052","33094","100816","101333","1083","28699","31310","101334","101747","NA","100796","Fraction component detection task","56","29881","59","yes","1280"
"95","95","506.216666667","506.216666667","#808080","no","legacy","legacy","legacy","0","uniform","1","undefined","undefined","undefined","1","a","0","0","0","59","0","0","59","59","0","0","0","59","59","0","59","Tue May  1 12:57:10 2018","#000000","high","2","The main experiment item","yes","","exp1.osexp","/Users/tom/github/sft-fraction/exp1","no","mono","no","24","no","white","no","yes","800","legacy","59","59","0","/Users/tom/github/sft-fraction/exp1/data/subject-5b.csv","legacy","#757575","low","4","Jazzy James","3.1.9","0","a","NA","space","space","space","a","NA","492","NA","27594","2593","1782","492","NA","2","legacy","1024","2","48000","-16","experiment","5","odd","absent","33110","33110","NA","87757","1052","33094","101833","102349","1083","28699","31310","102349","102843","NA","101812","Fraction component detection task","57","30373","60","yes","1280"
"95.0819672131","95.0819672131","505.049180328","505.049180328","#808080","no","legacy","legacy","legacy","0","uniform","1","undefined","undefined","undefined","1","l","0","0","0","60","0","0","60","60","0","0","0","60","60","0","60","Tue May  1 12:57:10 2018","#000000","high","3","The main experiment item","yes","","exp1.osexp","/Users/tom/github/sft-fraction/exp1","no","mono","no","24","no","white","no","yes","800","legacy","60","60","0","/Users/tom/github/sft-fraction/exp1/data/subject-5b.csv","legacy","#757575","low","8","Jazzy James","3.1.9","0","l","NA","space","space","space","l","NA","435","NA","27594","2593","1782","435","NA","2","legacy","1024","2","48000","-16","experiment","5","odd","present","33110","33110","NA","87757","1052","33094","102930","103446","1083","28699","31310","103446","103883","NA","102909","Fraction component detection task","58","30808","61","yes","1280"
"95.1612903226","95.1612903226","503.516129032","503.516129032","#808080","no","legacy","legacy","legacy","0","uniform","1","undefined","undefined","undefined","1","a","0","0","0","61","0","0","61","61","0","0","0","61","61","0","61","Tue May  1 12:57:10 2018","#000000","high","4","The main experiment item","yes","","exp1.osexp","/Users/tom/github/sft-fraction/exp1","no","mono","no","24","no","white","no","yes","800","legacy","61","61","0","/Users/tom/github/sft-fraction/exp1/data/subject-5b.csv","legacy","#757575","low","2","Jazzy James","3.1.9","0","a","NA","space","space","space","a","NA","410","NA","27594","2593","1782","410","NA","2","legacy","1024","2","48000","-16","experiment","5","odd","absent","33110","33110","NA","87757","1052","33094","103978","104494","1083","28699","31310","104495","104907","NA","103957","Fraction component detection task","59","31218","62","yes","1280"
"95.2380952381","95.2380952381","501.968253968","501.968253968","#808080","no","legacy","legacy","legacy","0","uniform","1","undefined","undefined","undefined","1","a","0","0","0","62","0","0","62","62","0","0","0","62","62","0","62","Tue May  1 12:57:10 2018","#000000","high","3","The main experiment item","yes","","exp1.osexp","/Users/tom/github/sft-fraction/exp1","no","mono","no","24","no","white","no","yes","800","legacy","62","62","0","/Users/tom/github/sft-fraction/exp1/data/subject-5b.csv","legacy","#000000","high","4","Jazzy James","3.1.9","0","a","NA","space","space","space","a","NA","406","NA","27594","2593","1782","406","NA","2","legacy","1024","2","48000","-16","experiment","5","odd","absent","33110","33110","NA","87757","1052","33094","104991","105507","1083","28699","31310","105507","105915","NA","104971","Fraction component detection task","60","31624","63","yes","1280"
"95.3125","95.3125","500.34375","500.34375","#808080","no","legacy","legacy","legacy","0","uniform","1","undefined","undefined","undefined","1","l","0","0","0","63","0","0","63","63","0","0","0","63","63","0","63","Tue May  1 12:57:10 2018","#000000","high","6","The main experiment item","yes","","exp1.osexp","/Users/tom/github/sft-fraction/exp1","no","mono","no","24","no","white","no","yes","800","legacy","63","63","0","/Users/tom/github/sft-fraction/exp1/data/subject-5b.csv","legacy","#000000","high","8","Jazzy James","3.1.9","0","l","NA","space","space","space","l","NA","398","NA","27594","2593","1782","398","NA","2","legacy","1024","2","48000","-16","experiment","5","odd","present","33110","33110","NA","87757","1052","33094","105998","106514","1083","28699","31310","106515","106917","NA","105980","Fraction component detection task","61","32022","64","yes","1280"
"95.3846153846","95.3846153846","498.492307692","498.492307692","#808080","no","legacy","legacy","legacy","0","uniform","1","undefined","undefined","undefined","1","a","0","0","0","64","0","0","64","64","0","0","0","64","64","0","64","Tue May  1 12:57:10 2018","#000000","high","2","The main experiment item","yes","","exp1.osexp","/Users/tom/github/sft-fraction/exp1","no","mono","no","24","no","white","no","yes","800","legacy","64","64","0","/Users/tom/github/sft-fraction/exp1/data/subject-5b.csv","legacy","#000000","high","2","Jazzy James","3.1.9","0","a","NA","space","space","space","a","NA","380","NA","27594","2593","1782","380","NA","2","legacy","1024","2","48000","-16","experiment","5","odd","absent","33110","33110","NA","87757","1052","33094","107005","107525","1083","28699","31310","107525","107907","NA","106986","Fraction component detection task","62","32402","65","yes","1280"
"95.4545454545","95.4545454545","497.045454545","497.045454545","#808080","no","legacy","legacy","legacy","0","uniform","1","undefined","undefined","undefined","1","l","0","0","0","65","0","0","65","65","0","0","0","65","65","0","65","Tue May  1 12:57:10 2018","#757575","low","2","The main experiment item","yes","","exp1.osexp","/Users/tom/github/sft-fraction/exp1","no","mono","no","24","no","white","no","yes","800","legacy","65","65","0","/Users/tom/github/sft-fraction/exp1/data/subject-5b.csv","legacy","#757575","low","7","Jazzy James","3.1.9","0","l","NA","space","space","space","l","NA","403","NA","27594","2593","1782","403","NA","2","legacy","1024","2","48000","-16","experiment","5","odd","present","33110","33110","NA","87757","1052","33094","107993","108509","1083","28699","31310","108510","108915","NA","107977","Fraction component detection task","63","32805","66","yes","1280"
"95.5223880597","95.5223880597","498.208955224","498.208955224","#808080","no","legacy","legacy","legacy","0","uniform","1","undefined","undefined","undefined","1","l","0","0","0","66","0","0","66","66","0","0","0","66","66","0","66","Tue May  1 12:57:10 2018","#757575","low","7","The main experiment item","yes","","exp1.osexp","/Users/tom/github/sft-fraction/exp1","no","mono","no","24","no","white","no","yes","800","legacy","66","66","0","/Users/tom/github/sft-fraction/exp1/data/subject-5b.csv","legacy","#757575","low","3","Jazzy James","3.1.9","0","l","NA","space","space","space","l","NA","575","NA","27594","2593","1782","575","NA","2","legacy","1024","2","48000","-16","experiment","5","odd","present","33110","33110","NA","87757","1052","33094","108998","109520","1083","28699","31310","109521","110098","NA","108979","Fraction component detection task","64","33380","67","yes","1280"
"95.5882352941","95.5882352941","499.161764706","499.161764706","#808080","no","legacy","legacy","legacy","0","uniform","1","undefined","undefined","undefined","1","l","0","0","0","67","0","0","67","67","0","0","0","67","67","0","67","Tue May  1 12:57:10 2018","#757575","low","6","The main experiment item","yes","","exp1.osexp","/Users/tom/github/sft-fraction/exp1","no","mono","no","24","no","white","no","yes","800","legacy","67","67","0","/Users/tom/github/sft-fraction/exp1/data/subject-5b.csv","legacy","#000000","high","4","Jazzy James","3.1.9","0","l","NA","space","space","space","l","NA","563","NA","27594","2593","1782","563","NA","2","legacy","1024","2","48000","-16","experiment","5","odd","present","33110","33110","NA","87757","1052","33094","110180","110701","1083","28699","31310","110701","111266","NA","110163","Fraction component detection task","65","33943","68","yes","1280"
"95.652173913","95.652173913","498.115942029","498.115942029","#808080","no","legacy","legacy","legacy","0","uniform","1","undefined","undefined","undefined","1","a","0","0","0","68","0","0","68","68","0","0","0","68","68","0","68","Tue May  1 12:57:10 2018","#000000","high","2","The main experiment item","yes","","exp1.osexp","/Users/tom/github/sft-fraction/exp1","no","mono","no","24","no","white","no","yes","800","legacy","68","68","0","/Users/tom/github/sft-fraction/exp1/data/subject-5b.csv","legacy","#000000","high","2","Jazzy James","3.1.9","0","a","NA","space","space","space","a","NA","427","NA","27594","2593","1782","427","NA","2","legacy","1024","2","48000","-16","experiment","5","odd","absent","33110","33110","NA","87757","1052","33094","111351","111868","1083","28699","31310","111869","112298","NA","111331","Fraction component detection task","66","34370","69","yes","1280"
"95.7142857143","95.7142857143","497.1","497.1","#808080","no","legacy","legacy","legacy","0","uniform","1","undefined","undefined","undefined","1","a","0","0","0","69","0","0","69","69","0","0","0","69","69","0","69","Tue May  1 12:57:10 2018","#000000","high","3","The main experiment item","yes","","exp1.osexp","/Users/tom/github/sft-fraction/exp1","no","mono","no","24","no","white","no","yes","800","legacy","69","69","0","/Users/tom/github/sft-fraction/exp1/data/subject-5b.csv","legacy","#757575","low","2","Jazzy James","3.1.9","0","a","NA","space","space","space","a","NA","427","NA","27594","2593","1782","427","NA","2","legacy","1024","2","48000","-16","experiment","5","odd","absent","33110","33110","NA","87757","1052","33094","112382","112901","1083","28699","31310","112901","113331","NA","112366","Fraction component detection task","67","34797","70","yes","1280"
"95.7746478873","95.7746478873","496.943661972","496.943661972","#808080","no","legacy","legacy","legacy","0","uniform","1","undefined","undefined","undefined","1","l","0","0","0","70","0","0","70","70","0","0","0","70","70","0","70","Tue May  1 12:57:10 2018","#000000","high","7","The main experiment item","yes","","exp1.osexp","/Users/tom/github/sft-fraction/exp1","no","mono","no","24","no","white","no","yes","800","legacy","70","70","0","/Users/tom/github/sft-fraction/exp1/data/subject-5b.csv","legacy","#757575","low","2","Jazzy James","3.1.9","0","l","NA","space","space","space","l","NA","486","NA","27594","2593","1782","486","NA","2","legacy","1024","2","48000","-16","experiment","5","odd","present","33110","33110","NA","87757","1052","33094","113417","113937","1083","28699","31310","113938","114427","NA","113399","Fraction component detection task","68","35283","71","yes","1280"
"95.8333333333","95.8333333333","496.138888889","496.138888889","#808080","no","legacy","legacy","legacy","0","uniform","1","undefined","undefined","undefined","1","a","0","0","0","71","0","0","71","71","0","0","0","71","71","0","71","Tue May  1 12:57:10 2018","#000000","high","3","The main experiment item","yes","","exp1.osexp","/Users/tom/github/sft-fraction/exp1","no","mono","no","24","no","white","no","yes","800","legacy","71","71","0","/Users/tom/github/sft-fraction/exp1/data/subject-5b.csv","legacy","#000000","high","2","Jazzy James","3.1.9","0","a","NA","space","space","space","a","NA","439","NA","27594","2593","1782","439","NA","2","legacy","1024","2","48000","-16","experiment","5","odd","absent","33110","33110","NA","87757","1052","33094","114512","115033","1083","28699","31310","115033","115474","NA","114491","Fraction component detection task","69","35722","72","yes","1280"
"95.8904109589","95.8904109589","495.410958904","495.410958904","#808080","no","legacy","legacy","legacy","0","uniform","1","undefined","undefined","undefined","1","l","0","0","0","72","0","0","72","72","0","0","0","72","72","0","72","Tue May  1 12:57:10 2018","#757575","low","6","The main experiment item","yes","","exp1.osexp","/Users/tom/github/sft-fraction/exp1","no","mono","no","24","no","white","no","yes","800","legacy","72","72","0","/Users/tom/github/sft-fraction/exp1/data/subject-5b.csv","legacy","#000000","high","8","Jazzy James","3.1.9","0","l","NA","space","space","space","l","NA","443","NA","27594","2593","1782","443","NA","2","legacy","1024","2","48000","-16","experiment","5","odd","present","33110","33110","NA","87757","1052","33094","115561","116078","1083","28699","31310","116078","116524","NA","115540","Fraction component detection task","70","36165","73","yes","1280"
"95.9459459459","95.9459459459","494.351351351","494.351351351","#808080","no","legacy","legacy","legacy","0","uniform","1","undefined","undefined","undefined","1","l","0","0","0","73","0","0","73","73","0","0","0","73","73","0","73","Tue May  1 12:57:10 2018","#757575","low","3","The main experiment item","yes","","exp1.osexp","/Users/tom/github/sft-fraction/exp1","no","mono","no","24","no","white","no","yes","800","legacy","73","73","0","/Users/tom/github/sft-fraction/exp1/data/subject-5b.csv","legacy","#000000","high","7","Jazzy James","3.1.9","0","l","NA","space","space","space","l","NA","417","NA","27594","2593","1782","417","NA","2","legacy","1024","2","48000","-16","experiment","5","odd","present","33110","33110","NA","87757","1052","33094","116611","117127","1083","28699","31310","117127","117547","NA","116596","Fraction component detection task","71","36582","74","yes","1280"
"96","96","494.72","494.72","#808080","no","legacy","legacy","legacy","0","uniform","1","undefined","undefined","undefined","1","l","0","0","0","74","0","0","74","74","0","0","0","74","74","0","74","Tue May  1 12:57:10 2018","#757575","low","6","The main experiment item","yes","","exp1.osexp","/Users/tom/github/sft-fraction/exp1","no","mono","no","24","no","white","no","yes","800","legacy","74","74","0","/Users/tom/github/sft-fraction/exp1/data/subject-5b.csv","legacy","#757575","low","8","Jazzy James","3.1.9","0","l","NA","space","space","space","l","NA","522","NA","27594","2593","1782","522","NA","2","legacy","1024","2","48000","-16","experiment","5","odd","present","33110","33110","NA","87757","1052","33094","117631","118151","1083","28699","31310","118151","118677","NA","117610","Fraction component detection task","72","37104","75","yes","1280"
"96.0526315789","96.0526315789","496.684210526","496.684210526","#808080","no","legacy","legacy","legacy","0","uniform","1","undefined","undefined","undefined","1","a","0","0","0","75","0","0","75","75","0","0","0","75","75","0","75","Tue May  1 12:57:10 2018","#000000","high","2","The main experiment item","yes","","exp1.osexp","/Users/tom/github/sft-fraction/exp1","no","mono","no","24","no","white","no","yes","800","legacy","75","75","0","/Users/tom/github/sft-fraction/exp1/data/subject-5b.csv","legacy","#000000","high","3","Jazzy James","3.1.9","0","a","NA","space","space","space","a","NA","644","NA","27594","2593","1782","644","NA","2","legacy","1024","2","48000","-16","experiment","5","odd","absent","33110","33110","NA","87757","1052","33094","118761","119277","1083","28699","31310","119277","119924","NA","118745","Fraction component detection task","73","37748","76","yes","1280"
"96.1038961039","96.1038961039","496.844155844","496.844155844","#808080","no","legacy","legacy","legacy","0","uniform","1","undefined","undefined","undefined","1","l","0","0","0","76","0","0","76","76","0","0","0","76","76","0","76","Tue May  1 12:57:10 2018","#757575","low","3","The main experiment item","yes","","exp1.osexp","/Users/tom/github/sft-fraction/exp1","no","mono","no","24","no","white","no","yes","800","legacy","76","76","0","/Users/tom/github/sft-fraction/exp1/data/subject-5b.csv","legacy","#000000","high","6","Jazzy James","3.1.9","0","l","NA","space","space","space","l","NA","509","NA","27594","2593","1782","509","NA","2","legacy","1024","2","48000","-16","experiment","5","odd","present","33110","33110","NA","87757","1052","33094","120014","120530","1083","28699","31310","120531","121043","NA","119992","Fraction component detection task","74","38257","77","yes","1280"
"96.1538461538","96.1538461538","496.205128205","496.205128205","#808080","no","legacy","legacy","legacy","0","uniform","1","undefined","undefined","undefined","1","l","0","0","0","77","0","0","77","77","0","0","0","77","77","0","77","Tue May  1 12:57:10 2018","#757575","low","3","The main experiment item","yes","","exp1.osexp","/Users/tom/github/sft-fraction/exp1","no","mono","no","24","no","white","no","yes","800","legacy","77","77","0","/Users/tom/github/sft-fraction/exp1/data/subject-5b.csv","legacy","#757575","low","7","Jazzy James","3.1.9","0","l","NA","space","space","space","l","NA","447","NA","27594","2593","1782","447","NA","2","legacy","1024","2","48000","-16","experiment","5","odd","present","33110","33110","NA","87757","1052","33094","121126","121642","1083","28699","31310","121642","122091","NA","121108","Fraction component detection task","75","38704","78","yes","1280"
"96.2025316456","96.2025316456","502.493670886","502.493670886","#808080","no","legacy","legacy","legacy","0","uniform","1","undefined","undefined","undefined","1","a","0","0","0","78","0","0","78","78","0","0","0","78","78","0","78","Tue May  1 12:57:10 2018","#757575","low","4","The main experiment item","yes","","exp1.osexp","/Users/tom/github/sft-fraction/exp1","no","mono","no","24","no","white","no","yes","800","legacy","78","78","0","/Users/tom/github/sft-fraction/exp1/data/subject-5b.csv","legacy","#000000","high","4","Jazzy James","3.1.9","0","a","NA","space","space","space","a","NA","993","NA","27594","2593","1782","993","NA","2","legacy","1024","2","48000","-16","experiment","5","odd","absent","33110","33110","NA","87757","1052","33094","122177","122697","1083","28699","31310","122697","123693","NA","122162","Fraction component detection task","76","39697","79","yes","1280"
"96.25","96.25","503.35","503.35","#808080","no","legacy","legacy","legacy","0","uniform","1","undefined","undefined","undefined","1","l","0","0","0","79","0","0","79","79","0","0","0","79","79","0","79","Tue May  1 12:57:10 2018","#757575","low","6","The main experiment item","yes","","exp1.osexp","/Users/tom/github/sft-fraction/exp1","no","mono","no","24","no","white","no","yes","800","legacy","79","79","0","/Users/tom/github/sft-fraction/exp1/data/subject-5b.csv","legacy","#000000","high","7","Jazzy James","3.1.9","0","l","NA","space","space","space","l","NA","571","NA","27594","2593","1782","571","NA","2","legacy","1024","2","48000","-16","experiment","5","odd","present","33110","33110","NA","87757","1052","33094","123776","124295","1083","28699","31310","124295","124868","NA","123759","Fraction component detection task","77","40268","80","yes","1280"
"96.2962962963","96.2962962963","503.111111111","503.111111111","#808080","no","legacy","legacy","legacy","0","uniform","1","undefined","undefined","undefined","1","l","0","0","0","80","0","0","80","80","0","0","0","80","80","0","80","Tue May  1 12:57:10 2018","#000000","high","6","The main experiment item","yes","","exp1.osexp","/Users/tom/github/sft-fraction/exp1","no","mono","no","24","no","white","no","yes","800","legacy","80","80","0","/Users/tom/github/sft-fraction/exp1/data/subject-5b.csv","legacy","#000000","high","4","Jazzy James","3.1.9","0","l","NA","space","space","space","l","NA","484","NA","27594","2593","1782","484","NA","2","legacy","1024","2","48000","-16","experiment","5","odd","present","33110","33110","NA","87757","1052","33094","124951","125470","1083","28699","31310","125470","125956","NA","124935","Fraction component detection task","78","40752","81","yes","1280"
"96.3414634146","96.3414634146","502.963414634","502.963414634","#808080","no","legacy","legacy","legacy","0","uniform","1","undefined","undefined","undefined","1","a","0","0","0","81","0","0","81","81","0","0","0","81","81","0","81","Tue May  1 12:57:10 2018","#000000","high","2","The main experiment item","yes","","exp1.osexp","/Users/tom/github/sft-fraction/exp1","no","mono","no","24","no","white","no","yes","800","legacy","81","81","0","/Users/tom/github/sft-fraction/exp1/data/subject-5b.csv","legacy","#000000","high","2","Jazzy James","3.1.9","0","a","NA","space","space","space","a","NA","491","NA","27594","2593","1782","491","NA","2","legacy","1024","2","48000","-16","experiment","5","odd","absent","33110","33110","NA","87757","1052","33094","126041","126558","1083","28699","31310","126558","127051","NA","126020","Fraction component detection task","79","41243","82","yes","1280"
"96.3855421687","96.3855421687","502.397590361","502.397590361","#808080","no","legacy","legacy","legacy","0","uniform","1","undefined","undefined","undefined","1","a","0","0","0","82","0","0","82","82","0","0","0","82","82","0","82","Tue May  1 12:57:10 2018","#757575","low","4","The main experiment item","yes","","exp1.osexp","/Users/tom/github/sft-fraction/exp1","no","mono","no","24","no","white","no","yes","800","legacy","82","82","0","/Users/tom/github/sft-fraction/exp1/data/subject-5b.csv","legacy","#757575","low","4","Jazzy James","3.1.9","0","a","NA","space","space","space","a","NA","456","NA","27594","2593","1782","456","NA","2","legacy","1024","2","48000","-16","experiment","5","odd","absent","33110","33110","NA","87757","1052","33094","127136","127657","1083","28699","31310","127657","128116","NA","127121","Fraction component detection task","80","41699","83","yes","1280"
"96.4285714286","96.4285714286","502.202380952","502.202380952","#808080","no","legacy","legacy","legacy","0","uniform","1","undefined","undefined","undefined","1","l","0","0","0","83","0","0","83","83","0","0","0","83","83","0","83","Tue May  1 12:57:10 2018","#000000","high","6","The main experiment item","yes","","exp1.osexp","/Users/tom/github/sft-fraction/exp1","no","mono","no","24","no","white","no","yes","800","legacy","83","83","0","/Users/tom/github/sft-fraction/exp1/data/subject-5b.csv","legacy","#000000","high","7","Jazzy James","3.1.9","0","l","NA","space","space","space","l","NA","486","NA","27594","2593","1782","486","NA","2","legacy","1024","2","48000","-16","experiment","5","odd","present","33110","33110","NA","87757","1052","33094","128197","128714","1083","28699","31310","128715","129204","NA","128181","Fraction component detection task","81","42185","84","yes","1280"
"96.4705882353","96.4705882353","501.094117647","501.094117647","#808080","no","legacy","legacy","legacy","0","uniform","1","undefined","undefined","undefined","1","l","0","0","0","84","0","0","84","84","0","0","0","84","84","0","84","Tue May  1 12:57:10 2018","#757575","low","8","The main experiment item","yes","","exp1.osexp","/Users/tom/github/sft-fraction/exp1","no","mono","no","24","no","white","no","yes","800","legacy","84","84","0","/Users/tom/github/sft-fraction/exp1/data/subject-5b.csv","legacy","#757575","low","7","Jazzy James","3.1.9","0","l","NA","space","space","space","l","NA","408","NA","27594","2593","1782","408","NA","2","legacy","1024","2","48000","-16","experiment","5","odd","present","33110","33110","NA","87757","1052","33094","129283","129801","1083","28699","31310","129801","130211","NA","129268","Fraction component detection task","82","42593","85","yes","1280"
"96.511627907","96.511627907","501.220930233","501.220930233","#808080","no","legacy","legacy","legacy","0","uniform","1","undefined","undefined","undefined","1","a","0","0","0","85","0","0","85","85","0","0","0","85","85","0","85","Tue May  1 12:57:10 2018","#757575","low","3","The main experiment item","yes","","exp1.osexp","/Users/tom/github/sft-fraction/exp1","no","mono","no","24","no","white","no","yes","800","legacy","85","85","0","/Users/tom/github/sft-fraction/exp1/data/subject-5b.csv","legacy","#000000","high","2","Jazzy James","3.1.9","0","a","NA","space","space","space","a","NA","512","NA","27594","2593","1782","512","NA","2","legacy","1024","2","48000","-16","experiment","5","odd","absent","33110","33110","NA","87757","1052","33094","130297","130817","1083","28699","31310","130817","131332","NA","130276","Fraction component detection task","83","43105","86","yes","1280"
"96.5517241379","96.5517241379","500.965517241","500.965517241","#808080","no","legacy","legacy","legacy","0","uniform","1","undefined","undefined","undefined","1","a","0","0","0","86","0","0","86","86","0","0","0","86","86","0","86","Tue May  1 12:57:10 2018","#000000","high","3","The main experiment item","yes","","exp1.osexp","/Users/tom/github/sft-fraction/exp1","no","mono","no","24","no","white","no","yes","800","legacy","86","86","0","/Users/tom/github/sft-fraction/exp1/data/subject-5b.csv","legacy","#000000","high","3","Jazzy James","3.1.9","0","a","NA","space","space","space","a","NA","479","NA","27594","2593","1782","479","NA","2","legacy","1024","2","48000","-16","experiment","5","odd","absent","33110","33110","NA","87757","1052","33094","131413","131930","1083","28699","31310","131930","132412","NA","131398","Fraction component detection task","84","43584","87","yes","1280"
"96.5909090909","96.5909090909","501.113636364","501.113636364","#808080","no","legacy","legacy","legacy","0","uniform","1","undefined","undefined","undefined","1","a","0","0","0","87","0","0","87","87","0","0","0","87","87","0","87","Tue May  1 12:57:10 2018","#757575","low","3","The main experiment item","yes","","exp1.osexp","/Users/tom/github/sft-fraction/exp1","no","mono","no","24","no","white","no","yes","800","legacy","87","87","0","/Users/tom/github/sft-fraction/exp1/data/subject-5b.csv","legacy","#000000","high","4","Jazzy James","3.1.9","0","a","NA","space","space","space","a","NA","514","NA","27594","2593","1782","514","NA","2","legacy","1024","2","48000","-16","experiment","5","odd","absent","33110","33110","NA","87757","1052","33094","132498","133015","1083","28699","31310","133015","133532","NA","132482","Fraction component detection task","85","44098","88","yes","1280"
"96.6292134831","96.6292134831","501.247191011","501.247191011","#808080","no","legacy","legacy","legacy","0","uniform","1","undefined","undefined","undefined","1","a","0","0","0","88","0","0","88","88","0","0","0","88","88","0","88","Tue May  1 12:57:10 2018","#000000","high","3","The main experiment item","yes","","exp1.osexp","/Users/tom/github/sft-fraction/exp1","no","mono","no","24","no","white","no","yes","800","legacy","88","88","0","/Users/tom/github/sft-fraction/exp1/data/subject-5b.csv","legacy","#757575","low","3","Jazzy James","3.1.9","0","a","NA","space","space","space","a","NA","513","NA","27594","2593","1782","513","NA","2","legacy","1024","2","48000","-16","experiment","5","odd","absent","33110","33110","NA","87757","1052","33094","133611","134128","1083","28699","31310","134128","134645","NA","133596","Fraction component detection task","86","44611","89","yes","1280"
"96.6666666667","96.6666666667","500.277777778","500.277777778","#808080","no","legacy","legacy","legacy","0","uniform","1","undefined","undefined","undefined","1","a","0","0","0","89","0","0","89","89","0","0","0","89","89","0","89","Tue May  1 12:57:10 2018","#000000","high","3","The main experiment item","yes","","exp1.osexp","/Users/tom/github/sft-fraction/exp1","no","mono","no","24","no","white","no","yes","800","legacy","89","89","0","/Users/tom/github/sft-fraction/exp1/data/subject-5b.csv","legacy","#000000","high","4","Jazzy James","3.1.9","0","a","NA","space","space","space","a","NA","414","NA","27594","2593","1782","414","NA","2","legacy","1024","2","48000","-16","experiment","5","odd","absent","33110","33110","NA","87757","1052","33094","134731","135251","1083","28699","31310","135251","135668","NA","134715","Fraction component detection task","87","45025","90","yes","1280"
"96.7032967033","96.7032967033","500.076923077","500.076923077","#808080","no","legacy","legacy","legacy","0","uniform","1","undefined","undefined","undefined","1","a","0","0","0","90","0","0","90","90","0","0","0","90","90","0","90","Tue May  1 12:57:10 2018","#000000","high","2","The main experiment item","yes","","exp1.osexp","/Users/tom/github/sft-fraction/exp1","no","mono","no","24","no","white","no","yes","800","legacy","90","90","0","/Users/tom/github/sft-fraction/exp1/data/subject-5b.csv","legacy","#000000","high","4","Jazzy James","3.1.9","0","a","NA","space","space","space","a","NA","482","NA","27594","2593","1782","482","NA","2","legacy","1024","2","48000","-16","experiment","5","odd","absent","33110","33110","NA","87757","1052","33094","135755","136271","1083","28699","31310","136272","136757","NA","135735","Fraction component detection task","88","45507","91","yes","1280"
"96.7391304348","96.7391304348","499.52173913","499.52173913","#808080","no","legacy","legacy","legacy","0","uniform","1","undefined","undefined","undefined","1","a","0","0","0","91","0","0","91","91","0","0","0","91","91","0","91","Tue May  1 12:57:10 2018","#757575","low","2","The main experiment item","yes","","exp1.osexp","/Users/tom/github/sft-fraction/exp1","no","mono","no","24","no","white","no","yes","800","legacy","91","91","0","/Users/tom/github/sft-fraction/exp1/data/subject-5b.csv","legacy","#000000","high","3","Jazzy James","3.1.9","0","a","NA","space","space","space","a","NA","449","NA","27594","2593","1782","449","NA","2","legacy","1024","2","48000","-16","experiment","5","odd","absent","33110","33110","NA","87757","1052","33094","136852","137369","1083","28699","31310","137369","137821","NA","136825","Fraction component detection task","89","45956","92","yes","1280"
"96.7741935484","96.7741935484","499.419354839","499.419354839","#808080","no","legacy","legacy","legacy","0","uniform","1","undefined","undefined","undefined","1","l","0","0","0","92","0","0","92","92","0","0","0","92","92","0","92","Tue May  1 12:57:10 2018","#000000","high","8","The main experiment item","yes","","exp1.osexp","/Users/tom/github/sft-fraction/exp1","no","mono","no","24","no","white","no","yes","800","legacy","92","92","0","/Users/tom/github/sft-fraction/exp1/data/subject-5b.csv","legacy","#000000","high","7","Jazzy James","3.1.9","0","l","NA","space","space","space","l","NA","490","NA","27594","2593","1782","490","NA","2","legacy","1024","2","48000","-16","experiment","5","odd","present","33110","33110","NA","87757","1052","33094","137904","138424","1083","28699","31310","138424","138918","NA","137886","Fraction component detection task","90","46446","93","yes","1280"
"96.8085106383","96.8085106383","500.180851064","500.180851064","#808080","no","legacy","legacy","legacy","0","uniform","1","undefined","undefined","undefined","1","a","0","0","0","93","0","0","93","93","0","0","0","93","93","0","93","Tue May  1 12:57:10 2018","#757575","low","4","The main experiment item","yes","","exp1.osexp","/Users/tom/github/sft-fraction/exp1","no","mono","no","24","no","white","no","yes","800","legacy","93","93","0","/Users/tom/github/sft-fraction/exp1/data/subject-5b.csv","legacy","#757575","low","4","Jazzy James","3.1.9","0","a","NA","space","space","space","a","NA","571","NA","27594","2593","1782","571","NA","2","legacy","1024","2","48000","-16","experiment","5","odd","absent","33110","33110","NA","87757","1052","33094","138998","139517","1083","28699","31310","139518","140092","NA","138983","Fraction component detection task","91","47017","94","yes","1280"
"96.8421052632","96.8421052632","500.431578947","500.431578947","#808080","no","legacy","legacy","legacy","0","uniform","1","undefined","undefined","undefined","1","a","0","0","0","94","0","0","94","94","0","0","0","94","94","0","94","Tue May  1 12:57:10 2018","#757575","low","3","The main experiment item","yes","","exp1.osexp","/Users/tom/github/sft-fraction/exp1","no","mono","no","24","no","white","no","yes","800","legacy","94","94","0","/Users/tom/github/sft-fraction/exp1/data/subject-5b.csv","legacy","#000000","high","3","Jazzy James","3.1.9","0","a","NA","space","space","space","a","NA","524","NA","27594","2593","1782","524","NA","2","legacy","1024","2","48000","-16","experiment","5","odd","absent","33110","33110","NA","87757","1052","33094","140172","140693","1083","28699","31310","140694","141220","NA","140157","Fraction component detection task","92","47541","95","yes","1280"
"96.875","96.875","500.458333333","500.458333333","#808080","no","legacy","legacy","legacy","0","uniform","1","undefined","undefined","undefined","1","l","0","0","0","95","0","0","95","95","0","0","0","95","95","0","95","Tue May  1 12:57:10 2018","#757575","low","2","The main experiment item","yes","","exp1.osexp","/Users/tom/github/sft-fraction/exp1","no","mono","no","24","no","white","no","yes","800","legacy","95","95","0","/Users/tom/github/sft-fraction/exp1/data/subject-5b.csv","legacy","#757575","low","8","Jazzy James","3.1.9","0","l","NA","space","space","space","l","NA","503","NA","27594","2593","1782","503","NA","2","legacy","1024","2","48000","-16","experiment","5","odd","present","33110","33110","NA","87757","1052","33094","141307","141826","1083","28699","31310","141826","142332","NA","141287","Fraction component detection task","93","48044","96","yes","1280"
"96.9072164948","96.9072164948","500.556701031","500.556701031","#808080","no","legacy","legacy","legacy","0","uniform","1","undefined","undefined","undefined","1","a","0","0","0","96","0","0","96","96","0","0","0","96","96","0","96","Tue May  1 12:57:10 2018","#000000","high","4","The main experiment item","yes","","exp1.osexp","/Users/tom/github/sft-fraction/exp1","no","mono","no","24","no","white","no","yes","800","legacy","96","96","0","/Users/tom/github/sft-fraction/exp1/data/subject-5b.csv","legacy","#000000","high","3","Jazzy James","3.1.9","0","a","NA","space","space","space","a","NA","510","NA","27594","2593","1782","510","NA","2","legacy","1024","2","48000","-16","experiment","5","odd","absent","33110","33110","NA","87757","1052","33094","142419","142940","1083","28699","31310","142940","143452","NA","142397","Fraction component detection task","94","48554","97","yes","1280"
"96.9387755102","96.9387755102","500.520408163","500.520408163","#808080","no","legacy","legacy","legacy","0","uniform","1","undefined","undefined","undefined","1","l","0","0","0","97","0","0","97","97","0","0","0","97","97","0","97","Tue May  1 12:57:10 2018","#757575","low","4","The main experiment item","yes","","exp1.osexp","/Users/tom/github/sft-fraction/exp1","no","mono","no","24","no","white","no","yes","800","legacy","97","97","0","/Users/tom/github/sft-fraction/exp1/data/subject-5b.csv","legacy","#000000","high","8","Jazzy James","3.1.9","0","l","NA","space","space","space","l","NA","497","NA","27594","2593","1782","497","NA","2","legacy","1024","2","48000","-16","experiment","5","odd","present","33110","33110","NA","87757","1052","33094","143533","144049","1083","28699","31310","144049","144548","NA","143517","Fraction component detection task","95","49051","98","yes","1280"
"96.9696969697","96.9696969697","500.03030303","500.03030303","#808080","no","legacy","legacy","legacy","0","uniform","1","undefined","undefined","undefined","1","a","0","0","0","98","0","0","98","98","0","0","0","98","98","0","98","Tue May  1 12:57:10 2018","#757575","low","4","The main experiment item","yes","","exp1.osexp","/Users/tom/github/sft-fraction/exp1","no","mono","no","24","no","white","no","yes","800","legacy","98","98","0","/Users/tom/github/sft-fraction/exp1/data/subject-5b.csv","legacy","#000000","high","4","Jazzy James","3.1.9","0","a","NA","space","space","space","a","NA","452","NA","27594","2593","1782","452","NA","2","legacy","1024","2","48000","-16","experiment","5","odd","absent","33110","33110","NA","87757","1052","33094","144637","145158","1083","28699","31310","145158","145612","NA","144617","Fraction component detection task","96","49503","99","yes","1280"
"97","97","498.93","498.93","#808080","no","legacy","legacy","legacy","0","uniform","1","undefined","undefined","undefined","1","a","0","0","0","99","0","0","99","99","0","0","0","99","99","0","99","Tue May  1 12:57:10 2018","#000000","high","4","The main experiment item","yes","","exp1.osexp","/Users/tom/github/sft-fraction/exp1","no","mono","no","24","no","white","no","yes","800","legacy","99","99","0","/Users/tom/github/sft-fraction/exp1/data/subject-5b.csv","legacy","#000000","high","2","Jazzy James","3.1.9","0","a","NA","space","space","space","a","NA","390","NA","27594","2593","1782","390","NA","2","legacy","1024","2","48000","-16","experiment","5","odd","absent","33110","33110","NA","87757","1052","33094","145693","146212","1083","28699","31310","146212","146604","NA","145677","Fraction component detection task","97","49893","100","yes","1280"
"97.0297029703","97.0297029703","498.04950495","498.04950495","#808080","no","legacy","legacy","legacy","0","uniform","1","undefined","undefined","undefined","1","a","0","0","0","100","0","0","100","100","0","0","0","100","100","0","100","Tue May  1 12:57:10 2018","#000000","high","4","The main experiment item","yes","","exp1.osexp","/Users/tom/github/sft-fraction/exp1","no","mono","no","24","no","white","no","yes","800","legacy","100","100","0","/Users/tom/github/sft-fraction/exp1/data/subject-5b.csv","legacy","#000000","high","4","Jazzy James","3.1.9","0","a","NA","space","space","space","a","NA","410","NA","27594","2593","1782","410","NA","2","legacy","1024","2","48000","-16","experiment","5","odd","absent","33110","33110","NA","87757","1052","33094","146691","147208","1083","28699","31310","147208","147621","NA","146675","Fraction component detection task","98","50303","101","yes","1280"
"97.0588235294","97.0588235294","498.578431373","498.578431373","#808080","no","legacy","legacy","legacy","0","uniform","1","undefined","undefined","undefined","1","l","0","0","0","101","0","0","101","101","0","0","0","101","101","0","101","Tue May  1 12:57:10 2018","#757575","low","6","The main experiment item","yes","","exp1.osexp","/Users/tom/github/sft-fraction/exp1","no","mono","no","24","no","white","no","yes","800","legacy","101","101","0","/Users/tom/github/sft-fraction/exp1/data/subject-5b.csv","legacy","#757575","low","4","Jazzy James","3.1.9","0","l","NA","space","space","space","l","NA","552","NA","27594","2593","1782","552","NA","2","legacy","1024","2","48000","-16","experiment","5","odd","present","33110","33110","NA","87757","1052","33094","147703","148219","1083","28699","31310","148219","148774","NA","147687","Fraction component detection task","99","50855","102","yes","1280"
"97.0873786408","97.0873786408","498.106796117","498.106796117","#808080","no","legacy","legacy","legacy","0","uniform","1","undefined","undefined","undefined","1","a","0","0","0","102","0","0","102","102","0","0","0","102","102","0","102","Tue May  1 12:57:10 2018","#000000","high","3","The main experiment item","yes","","exp1.osexp","/Users/tom/github/sft-fraction/exp1","no","mono","no","24","no","white","no","yes","800","legacy","102","102","0","/Users/tom/github/sft-fraction/exp1/data/subject-5b.csv","legacy","#000000","high","3","Jazzy James","3.1.9","0","a","NA","space","space","space","a","NA","450","NA","27594","2593","1782","450","NA","2","legacy","1024","2","48000","-16","experiment","5","odd","absent","33110","33110","NA","87757","1052","33094","148860","149377","1083","28699","31310","149377","149830","NA","148844","Fraction component detection task","100","51305","103","yes","1280"
"97.1153846154","97.1153846154","498.192307692","498.192307692","#808080","no","legacy","legacy","legacy","0","uniform","1","undefined","undefined","undefined","1","l","0","0","0","103","0","0","103","103","0","0","0","103","103","0","103","Tue May  1 12:57:10 2018","#000000","high","6","The main experiment item","yes","","exp1.osexp","/Users/tom/github/sft-fraction/exp1","no","mono","no","24","no","white","no","yes","800","legacy","103","103","0","/Users/tom/github/sft-fraction/exp1/data/subject-5b.csv","legacy","#757575","low","4","Jazzy James","3.1.9","0","l","NA","space","space","space","l","NA","507","NA","27594","2593","1782","507","NA","2","legacy","1024","2","48000","-16","experiment","5","odd","present","33110","33110","NA","87757","1052","33094","149914","150432","1083","28699","31310","150432","150942","NA","149899","Fraction component detection task","101","51812","104","yes","1280"
"97.1428571429","97.1428571429","498.20952381","498.20952381","#808080","no","legacy","legacy","legacy","0","uniform","1","undefined","undefined","undefined","1","l","0","0","0","104","0","0","104","104","0","0","0","104","104","0","104","Tue May  1 12:57:10 2018","#000000","high","7","The main experiment item","yes","","exp1.osexp","/Users/tom/github/sft-fraction/exp1","no","mono","no","24","no","white","no","yes","800","legacy","104","104","0","/Users/tom/github/sft-fraction/exp1/data/subject-5b.csv","legacy","#000000","high","2","Jazzy James","3.1.9","0","l","NA","space","space","space","l","NA","500","NA","27594","2593","1782","500","NA","2","legacy","1024","2","48000","-16","experiment","5","odd","present","33110","33110","NA","87757","1052","33094","151024","151542","1083","28699","31310","151542","152045","NA","151008","Fraction component detection task","102","52312","105","yes","1280"
"97.1698113208","97.1698113208","497.896226415","497.896226415","#808080","no","legacy","legacy","legacy","0","uniform","1","undefined","undefined","undefined","1","a","0","0","0","105","0","0","105","105","0","0","0","105","105","0","105","Tue May  1 12:57:10 2018","#757575","low","2","The main experiment item","yes","","exp1.osexp","/Users/tom/github/sft-fraction/exp1","no","mono","no","24","no","white","no","yes","800","legacy","105","105","0","/Users/tom/github/sft-fraction/exp1/data/subject-5b.csv","legacy","#757575","low","4","Jazzy James","3.1.9","0","a","NA","space","space","space","a","NA","465","NA","27594","2593","1782","465","NA","2","legacy","1024","2","48000","-16","experiment","5","odd","absent","33110","33110","NA","87757","1052","33094","152125","152641","1083","28699","31310","152641","153109","NA","152109","Fraction component detection task","103","52777","106","yes","1280"
"97.1962616822","97.1962616822","497.869158879","497.869158879","#808080","no","legacy","legacy","legacy","0","uniform","1","undefined","undefined","undefined","1","l","0","0","0","106","0","0","106","106","0","0","0","106","106","0","106","Tue May  1 12:57:10 2018","#000000","high","6","The main experiment item","yes","","exp1.osexp","/Users/tom/github/sft-fraction/exp1","no","mono","no","24","no","white","no","yes","800","legacy","106","106","0","/Users/tom/github/sft-fraction/exp1/data/subject-5b.csv","legacy","#000000","high","3","Jazzy James","3.1.9","0","l","NA","space","space","space","l","NA","495","NA","27594","2593","1782","495","NA","2","legacy","1024","2","48000","-16","experiment","5","odd","present","33110","33110","NA","87757","1052","33094","153198","153715","1083","28699","31310","153715","154213","NA","153178","Fraction component detection task","104","53272","107","yes","1280"
"97.2222222222","97.2222222222","497.222222222","497.222222222","#808080","no","legacy","legacy","legacy","0","uniform","1","undefined","undefined","undefined","1","a","0","0","0","107","0","0","107","107","0","0","0","107","107","0","107","Tue May  1 12:57:10 2018","#000000","high","2","The main experiment item","yes","","exp1.osexp","/Users/tom/github/sft-fraction/exp1","no","mono","no","24","no","white","no","yes","800","legacy","107","107","0","/Users/tom/github/sft-fraction/exp1/data/subject-5b.csv","legacy","#757575","low","2","Jazzy James","3.1.9","0","a","NA","space","space","space","a","NA","428","NA","27594","2593","1782","428","NA","2","legacy","1024","2","48000","-16","experiment","5","odd","absent","33110","33110","NA","87757","1052","33094","154297","154814","1083","28699","31310","154814","155245","NA","154278","Fraction component detection task","105","53700","108","yes","1280"
"97.247706422","97.247706422","496.788990826","496.788990826","#808080","no","legacy","legacy","legacy","0","uniform","1","undefined","undefined","undefined","1","a","0","0","0","108","0","0","108","108","0","0","0","108","108","0","108","Tue May  1 12:57:10 2018","#000000","high","3","The main experiment item","yes","","exp1.osexp","/Users/tom/github/sft-fraction/exp1","no","mono","no","24","no","white","no","yes","800","legacy","108","108","0","/Users/tom/github/sft-fraction/exp1/data/subject-5b.csv","legacy","#757575","low","2","Jazzy James","3.1.9","0","a","NA","space","space","space","a","NA","450","NA","27594","2593","1782","450","NA","2","legacy","1024","2","48000","-16","experiment","5","odd","absent","33110","33110","NA","87757","1052","33094","155331","155848","1083","28699","31310","155848","156302","NA","155308","Fraction component detection task","106","54150","109","yes","1280"
"97.2727272727","97.2727272727","495.745454545","495.745454545","#808080","no","legacy","legacy","legacy","0","uniform","1","undefined","undefined","undefined","1","a","0","0","0","109","0","0","109","109","0","0","0","109","109","0","109","Tue May  1 12:57:10 2018","#000000","high","2","The main experiment item","yes","","exp1.osexp","/Users/tom/github/sft-fraction/exp1","no","mono","no","24","no","white","no","yes","800","legacy","109","109","0","/Users/tom/github/sft-fraction/exp1/data/subject-5b.csv","legacy","#757575","low","3","Jazzy James","3.1.9","0","a","NA","space","space","space","a","NA","382","NA","27594","2593","1782","382","NA","2","legacy","1024","2","48000","-16","experiment","5","odd","absent","33110","33110","NA","87757","1052","33094","156383","156900","1083","28699","31310","156900","157286","NA","156368","Fraction component detection task","107","54532","110","yes","1280"
