"acc","accuracy","average_response_time","avg_rt","background","bidi","canvas_backend","clock_backend","color_backend","compensation","coordinates","correct","correct_instructions1","correct_instructions2","correct_instructions3","correct_keyboard_response","correct_response","count_block_loop","count_block_sequence","count_end_of_experiment","count_error","count_experiment","count_experimental_loop","count_fixation_dot","count_fraction","count_instructions1","count_instructions2","count_instructions3","count_keyboard_response","count_logger","count_rest","count_trial_sequence","datetime","denomColor","denomSalience","denominator","description","disable_garbage_collection","empty_column","experiment_file","experiment_path","font_bold","font_family","font_italic","font_size","font_underline","foreground","form_clicks","fullscreen","height","keyboard_backend","live_row","live_row_block_loop","live_row_experimental_loop","logfile","mouse_backend","numColor","numSalience","numerator","opensesame_codename","opensesame_version","repeat_cycle","response","response_end_of_experiment","response_instructions1","response_instructions2","response_instructions3","response_keyboard_response","response_rest","response_time","response_time_end_of_experiment","response_time_instructions1","response_time_instructions2","response_time_instructions3","response_time_keyboard_response","response_time_rest","round_decimals","sampler_backend","sound_buf_size","sound_channels","sound_freq","sound_sample_size","start","subject_nr","subject_parity","target","time_block_loop","time_block_sequence","time_end_of_experiment","time_error","time_experiment","time_experimental_loop","time_fixation_dot","time_fraction","time_instructions1","time_instructions2","time_instructions3","time_keyboard_response","time_logger","time_rest","time_trial_sequence","title","total_correct","total_response_time","total_responses","uniform_coordinates","width"
"100","100","802","802","#808080","no","legacy","legacy","legacy","0","uniform","1","undefined","undefined","undefined","1","a","0","0","0","0","0","0","0","0","0","0","0","0","0","0","0","Fri Apr 27 08:33:25 2018","#757575","low","2","The main experiment item","yes","","experiment.osexp","/Users/tom/github/sft-fraction/procedure","no","mono","no","24","no","white","no","yes","800","legacy","0","0","0","/Users/tom/github/sft-fraction/results/data/subject-2b.csv","legacy","#757575","low","4","Jazzy James","3.1.9","0","a","NA","space","space","l","a","NA","802","NA","75051","19073","19415","802","NA","2","legacy","1024","2","48000","-16","experiment","2","even","absent","142317","142316","NA","NA","28681","142299","142373","142890","28711","103786","122877","142890","143693","NA","142350","Fraction component detection task","1","802","1","yes","1280"
"100","100","677.5","677.5","#808080","no","legacy","legacy","legacy","0","uniform","1","undefined","undefined","undefined","1","a","0","0","0","1","0","0","1","1","0","0","0","1","1","0","1","Fri Apr 27 08:33:25 2018","#000000","high","4","The main experiment item","yes","","experiment.osexp","/Users/tom/github/sft-fraction/procedure","no","mono","no","24","no","white","no","yes","800","legacy","1","1","0","/Users/tom/github/sft-fraction/results/data/subject-2b.csv","legacy","#000000","high","4","Jazzy James","3.1.9","0","a","NA","space","space","l","a","NA","553","NA","75051","19073","19415","553","NA","2","legacy","1024","2","48000","-16","experiment","2","even","absent","142317","142316","NA","NA","28681","142299","143804","144322","28711","103786","122877","144323","144877","NA","143788","Fraction component detection task","2","1355","2","yes","1280"
"100","100","698","698","#808080","no","legacy","legacy","legacy","0","uniform","1","undefined","undefined","undefined","1","a","0","0","0","2","0","0","2","2","0","0","0","2","2","0","2","Fri Apr 27 08:33:25 2018","#757575","low","3","The main experiment item","yes","","experiment.osexp","/Users/tom/github/sft-fraction/procedure","no","mono","no","24","no","white","no","yes","800","legacy","2","2","0","/Users/tom/github/sft-fraction/results/data/subject-2b.csv","legacy","#000000","high","3","Jazzy James","3.1.9","0","a","NA","space","space","l","a","NA","739","NA","75051","19073","19415","739","NA","2","legacy","1024","2","48000","-16","experiment","2","even","absent","142317","142316","NA","NA","28681","142299","144980","145496","28711","103786","122877","145497","146237","NA","144960","Fraction component detection task","3","2094","3","yes","1280"
"100","100","706","706","#808080","no","legacy","legacy","legacy","0","uniform","1","undefined","undefined","undefined","1","a","0","0","0","3","0","0","3","3","0","0","0","3","3","0","3","Fri Apr 27 08:33:25 2018","#000000","high","3","The main experiment item","yes","","experiment.osexp","/Users/tom/github/sft-fraction/procedure","no","mono","no","24","no","white","no","yes","800","legacy","3","3","0","/Users/tom/github/sft-fraction/results/data/subject-2b.csv","legacy","#000000","high","2","Jazzy James","3.1.9","0","a","NA","space","space","l","a","NA","730","NA","75051","19073","19415","730","NA","2","legacy","1024","2","48000","-16","experiment","2","even","absent","142317","142316","NA","NA","28681","142299","146341","146858","28711","103786","122877","146858","147590","NA","146325","Fraction component detection task","4","2824","4","yes","1280"
"100","100","659.4","659.4","#808080","no","legacy","legacy","legacy","0","uniform","1","undefined","undefined","undefined","1","a","0","0","0","4","0","0","4","4","0","0","0","4","4","0","4","Fri Apr 27 08:33:25 2018","#757575","low","4","The main experiment item","yes","","experiment.osexp","/Users/tom/github/sft-fraction/procedure","no","mono","no","24","no","white","no","yes","800","legacy","4","4","0","/Users/tom/github/sft-fraction/results/data/subject-2b.csv","legacy","#757575","low","4","Jazzy James","3.1.9","0","a","NA","space","space","l","a","NA","473","NA","75051","19073","19415","473","NA","2","legacy","1024","2","48000","-16","experiment","2","even","absent","142317","142316","NA","NA","28681","142299","147686","148203","28711","103786","122877","148203","148679","NA","147671","Fraction component detection task","5","3297","5","yes","1280"
"100","100","646.833333333","646.833333333","#808080","no","legacy","legacy","legacy","0","uniform","1","undefined","undefined","undefined","1","l","0","0","0","5","0","0","5","5","0","0","0","5","5","0","5","Fri Apr 27 08:33:25 2018","#000000","high","3","The main experiment item","yes","","experiment.osexp","/Users/tom/github/sft-fraction/procedure","no","mono","no","24","no","white","no","yes","800","legacy","5","5","0","/Users/tom/github/sft-fraction/results/data/subject-2b.csv","legacy","#757575","low","8","Jazzy James","3.1.9","0","l","NA","space","space","l","l","NA","584","NA","75051","19073","19415","584","NA","2","legacy","1024","2","48000","-16","experiment","2","even","present","142317","142316","NA","NA","28681","142299","148776","149292","28711","103786","122877","149292","149878","NA","148760","Fraction component detection task","6","3881","6","yes","1280"
"100","100","615.142857143","615.142857143","#808080","no","legacy","legacy","legacy","0","uniform","1","undefined","undefined","undefined","1","a","0","0","0","6","0","0","6","6","0","0","0","6","6","0","6","Fri Apr 27 08:33:25 2018","#000000","high","4","The main experiment item","yes","","experiment.osexp","/Users/tom/github/sft-fraction/procedure","no","mono","no","24","no","white","no","yes","800","legacy","6","6","0","/Users/tom/github/sft-fraction/results/data/subject-2b.csv","legacy","#757575","low","4","Jazzy James","3.1.9","0","a","NA","space","space","l","a","NA","425","NA","75051","19073","19415","425","NA","2","legacy","1024","2","48000","-16","experiment","2","even","absent","142317","142316","NA","NA","28681","142299","149976","150491","28711","103786","122877","150491","150918","NA","149959","Fraction component detection task","7","4306","7","yes","1280"
"100","100","610.5","610.5","#808080","no","legacy","legacy","legacy","0","uniform","1","undefined","undefined","undefined","1","a","0","0","0","7","0","0","7","7","0","0","0","7","7","0","7","Fri Apr 27 08:33:25 2018","#000000","high","4","The main experiment item","yes","","experiment.osexp","/Users/tom/github/sft-fraction/procedure","no","mono","no","24","no","white","no","yes","800","legacy","7","7","0","/Users/tom/github/sft-fraction/results/data/subject-2b.csv","legacy","#000000","high","2","Jazzy James","3.1.9","0","a","NA","space","space","l","a","NA","578","NA","75051","19073","19415","578","NA","2","legacy","1024","2","48000","-16","experiment","2","even","absent","142317","142316","NA","NA","28681","142299","151025","151544","28711","103786","122877","151545","152126","NA","151007","Fraction component detection task","8","4884","8","yes","1280"
"100","100","593.111111111","593.111111111","#808080","no","legacy","legacy","legacy","0","uniform","1","undefined","undefined","undefined","1","a","0","0","0","8","0","0","8","8","0","0","0","8","8","0","8","Fri Apr 27 08:33:25 2018","#000000","high","4","The main experiment item","yes","","experiment.osexp","/Users/tom/github/sft-fraction/procedure","no","mono","no","24","no","white","no","yes","800","legacy","8","8","0","/Users/tom/github/sft-fraction/results/data/subject-2b.csv","legacy","#757575","low","4","Jazzy James","3.1.9","0","a","NA","space","space","l","a","NA","454","NA","75051","19073","19415","454","NA","2","legacy","1024","2","48000","-16","experiment","2","even","absent","142317","142316","NA","NA","28681","142299","152222","152742","28711","103786","122877","152742","153198","NA","152206","Fraction component detection task","9","5338","9","yes","1280"
"100","100","581.9","581.9","#808080","no","legacy","legacy","legacy","0","uniform","1","undefined","undefined","undefined","1","l","0","0","0","9","0","0","9","9","0","0","0","9","9","0","9","Fri Apr 27 08:33:25 2018","#000000","high","6","The main experiment item","yes","","experiment.osexp","/Users/tom/github/sft-fraction/procedure","no","mono","no","24","no","white","no","yes","800","legacy","9","9","0","/Users/tom/github/sft-fraction/results/data/subject-2b.csv","legacy","#000000","high","2","Jazzy James","3.1.9","0","l","NA","space","space","l","l","NA","481","NA","75051","19073","19415","481","NA","2","legacy","1024","2","48000","-16","experiment","2","even","present","142317","142316","NA","NA","28681","142299","153294","153811","28711","103786","122877","153811","154294","NA","153279","Fraction component detection task","10","5819","10","yes","1280"
"100","100","569.272727273","569.272727273","#808080","no","legacy","legacy","legacy","0","uniform","1","undefined","undefined","undefined","1","l","0","0","0","10","0","0","10","10","0","0","0","10","10","0","10","Fri Apr 27 08:33:25 2018","#000000","high","7","The main experiment item","yes","","experiment.osexp","/Users/tom/github/sft-fraction/procedure","no","mono","no","24","no","white","no","yes","800","legacy","10","10","0","/Users/tom/github/sft-fraction/results/data/subject-2b.csv","legacy","#000000","high","6","Jazzy James","3.1.9","0","l","NA","space","space","l","l","NA","443","NA","75051","19073","19415","443","NA","2","legacy","1024","2","48000","-16","experiment","2","even","present","142317","142316","NA","NA","28681","142299","154396","154913","28711","103786","122877","154913","155358","NA","154376","Fraction component detection task","11","6262","11","yes","1280"
"100","100","553.75","553.75","#808080","no","legacy","legacy","legacy","0","uniform","1","undefined","undefined","undefined","1","l","0","0","0","11","0","0","11","11","0","0","0","11","11","0","11","Fri Apr 27 08:33:25 2018","#000000","high","4","The main experiment item","yes","","experiment.osexp","/Users/tom/github/sft-fraction/procedure","no","mono","no","24","no","white","no","yes","800","legacy","11","11","0","/Users/tom/github/sft-fraction/results/data/subject-2b.csv","legacy","#000000","high","6","Jazzy James","3.1.9","0","l","NA","space","space","l","l","NA","383","NA","75051","19073","19415","383","NA","2","legacy","1024","2","48000","-16","experiment","2","even","present","142317","142316","NA","NA","28681","142299","155466","155989","28711","103786","122877","155989","156374","NA","155446","Fraction component detection task","12","6645","12","yes","1280"
"92.3076923077","92.3076923077","548.153846154","548.153846154","#808080","no","legacy","legacy","legacy","0","uniform","0","undefined","undefined","undefined","0","l","0","0","0","12","0","0","12","12","0","0","0","12","12","0","12","Fri Apr 27 08:33:25 2018","#757575","low","8","The main experiment item","yes","","experiment.osexp","/Users/tom/github/sft-fraction/procedure","no","mono","no","24","no","white","no","yes","800","legacy","12","12","0","/Users/tom/github/sft-fraction/results/data/subject-2b.csv","legacy","#000000","high","4","Jazzy James","3.1.9","0","a","NA","space","space","l","a","NA","481","NA","75051","19073","19415","481","NA","2","legacy","1024","2","48000","-16","experiment","2","even","present","142317","142316","NA","NA","28681","142299","156475","156994","28711","103786","122877","156995","157478","NA","156460","Fraction component detection task","12","7126","13","yes","1280"
"92.8571428571","92.8571428571","599.928571429","599.928571429","#808080","no","legacy","legacy","legacy","0","uniform","1","undefined","undefined","undefined","1","l","0","0","0","13","0","0","13","13","0","0","0","13","13","0","13","Fri Apr 27 08:33:25 2018","#757575","low","4","The main experiment item","yes","","experiment.osexp","/Users/tom/github/sft-fraction/procedure","no","mono","no","24","no","white","no","yes","800","legacy","13","13","0","/Users/tom/github/sft-fraction/results/data/subject-2b.csv","legacy","#000000","high","8","Jazzy James","3.1.9","0","l","NA","space","space","l","l","NA","1273","NA","75051","19073","19415","1273","NA","2","legacy","1024","2","48000","-16","experiment","2","even","present","142317","142316","NA","157497","28681","142299","158591","159107","28711","103786","122877","159107","160382","NA","158574","Fraction component detection task","13","8399","14","yes","1280"
"93.3333333333","93.3333333333","592.2","592.2","#808080","no","legacy","legacy","legacy","0","uniform","1","undefined","undefined","undefined","1","l","0","0","0","14","0","0","14","14","0","0","0","14","14","0","14","Fri Apr 27 08:33:25 2018","#000000","high","3","The main experiment item","yes","","experiment.osexp","/Users/tom/github/sft-fraction/procedure","no","mono","no","24","no","white","no","yes","800","legacy","14","14","0","/Users/tom/github/sft-fraction/results/data/subject-2b.csv","legacy","#757575","low","7","Jazzy James","3.1.9","0","l","NA","space","space","l","l","NA","484","NA","75051","19073","19415","484","NA","2","legacy","1024","2","48000","-16","experiment","2","even","present","142317","142316","NA","157497","28681","142299","160491","161009","28711","103786","122877","161009","161494","NA","160470","Fraction component detection task","14","8883","15","yes","1280"
"93.75","93.75","586.9375","586.9375","#808080","no","legacy","legacy","legacy","0","uniform","1","undefined","undefined","undefined","1","l","0","0","0","15","0","0","15","15","0","0","0","15","15","0","15","Fri Apr 27 08:33:25 2018","#000000","high","3","The main experiment item","yes","","experiment.osexp","/Users/tom/github/sft-fraction/procedure","no","mono","no","24","no","white","no","yes","800","legacy","15","15","0","/Users/tom/github/sft-fraction/results/data/subject-2b.csv","legacy","#757575","low","6","Jazzy James","3.1.9","0","l","NA","space","space","l","l","NA","508","NA","75051","19073","19415","508","NA","2","legacy","1024","2","48000","-16","experiment","2","even","present","142317","142316","NA","157497","28681","142299","161592","162112","28711","103786","122877","162113","162623","NA","161571","Fraction component detection task","15","9391","16","yes","1280"
"94.1176470588","94.1176470588","581.764705882","581.764705882","#808080","no","legacy","legacy","legacy","0","uniform","1","undefined","undefined","undefined","1","a","0","0","0","16","0","0","16","16","0","0","0","16","16","0","16","Fri Apr 27 08:33:25 2018","#000000","high","4","The main experiment item","yes","","experiment.osexp","/Users/tom/github/sft-fraction/procedure","no","mono","no","24","no","white","no","yes","800","legacy","16","16","0","/Users/tom/github/sft-fraction/results/data/subject-2b.csv","legacy","#000000","high","3","Jazzy James","3.1.9","0","a","NA","space","space","l","a","NA","499","NA","75051","19073","19415","499","NA","2","legacy","1024","2","48000","-16","experiment","2","even","absent","142317","142316","NA","157497","28681","142299","162723","163242","28711","103786","122877","163242","163743","NA","162707","Fraction component detection task","16","9890","17","yes","1280"
"94.4444444444","94.4444444444","574.388888889","574.388888889","#808080","no","legacy","legacy","legacy","0","uniform","1","undefined","undefined","undefined","1","a","0","0","0","17","0","0","17","17","0","0","0","17","17","0","17","Fri Apr 27 08:33:25 2018","#000000","high","4","The main experiment item","yes","","experiment.osexp","/Users/tom/github/sft-fraction/procedure","no","mono","no","24","no","white","no","yes","800","legacy","17","17","0","/Users/tom/github/sft-fraction/results/data/subject-2b.csv","legacy","#000000","high","3","Jazzy James","3.1.9","0","a","NA","space","space","l","a","NA","449","NA","75051","19073","19415","449","NA","2","legacy","1024","2","48000","-16","experiment","2","even","absent","142317","142316","NA","157497","28681","142299","163839","164356","28711","103786","122877","164356","164807","NA","163823","Fraction component detection task","17","10339","18","yes","1280"
"94.7368421053","94.7368421053","566","566","#808080","no","legacy","legacy","legacy","0","uniform","1","undefined","undefined","undefined","1","a","0","0","0","18","0","0","18","18","0","0","0","18","18","0","18","Fri Apr 27 08:33:25 2018","#000000","high","4","The main experiment item","yes","","experiment.osexp","/Users/tom/github/sft-fraction/procedure","no","mono","no","24","no","white","no","yes","800","legacy","18","18","0","/Users/tom/github/sft-fraction/results/data/subject-2b.csv","legacy","#757575","low","3","Jazzy James","3.1.9","0","a","NA","space","space","l","a","NA","415","NA","75051","19073","19415","415","NA","2","legacy","1024","2","48000","-16","experiment","2","even","absent","142317","142316","NA","157497","28681","142299","164909","165429","28711","103786","122877","165430","165847","NA","164892","Fraction component detection task","18","10754","19","yes","1280"
"95","95","564.2","564.2","#808080","no","legacy","legacy","legacy","0","uniform","1","undefined","undefined","undefined","1","l","0","0","0","19","0","0","19","19","0","0","0","19","19","0","19","Fri Apr 27 08:33:25 2018","#000000","high","8","The main experiment item","yes","","experiment.osexp","/Users/tom/github/sft-fraction/procedure","no","mono","no","24","no","white","no","yes","800","legacy","19","19","0","/Users/tom/github/sft-fraction/results/data/subject-2b.csv","legacy","#757575","low","7","Jazzy James","3.1.9","0","l","NA","space","space","l","l","NA","530","NA","75051","19073","19415","530","NA","2","legacy","1024","2","48000","-16","experiment","2","even","present","142317","142316","NA","157497","28681","142299","165950","166467","28711","103786","122877","166467","166999","NA","165928","Fraction component detection task","19","11284","20","yes","1280"
"95.2380952381","95.2380952381","566.428571429","566.428571429","#808080","no","legacy","legacy","legacy","0","uniform","1","undefined","undefined","undefined","1","a","0","0","0","20","0","0","20","20","0","0","0","20","20","0","20","Fri Apr 27 08:33:25 2018","#000000","high","4","The main experiment item","yes","","experiment.osexp","/Users/tom/github/sft-fraction/procedure","no","mono","no","24","no","white","no","yes","800","legacy","20","20","0","/Users/tom/github/sft-fraction/results/data/subject-2b.csv","legacy","#000000","high","3","Jazzy James","3.1.9","0","a","NA","space","space","l","a","NA","611","NA","75051","19073","19415","611","NA","2","legacy","1024","2","48000","-16","experiment","2","even","absent","142317","142316","NA","157497","28681","142299","167098","167618","28711","103786","122877","167618","168231","NA","167082","Fraction component detection task","20","11895","21","yes","1280"
"95.4545454545","95.4545454545","562.727272727","562.727272727","#808080","no","legacy","legacy","legacy","0","uniform","1","undefined","undefined","undefined","1","a","0","0","0","21","0","0","21","21","0","0","0","21","21","0","21","Fri Apr 27 08:33:25 2018","#000000","high","3","The main experiment item","yes","","experiment.osexp","/Users/tom/github/sft-fraction/procedure","no","mono","no","24","no","white","no","yes","800","legacy","21","21","0","/Users/tom/github/sft-fraction/results/data/subject-2b.csv","legacy","#000000","high","4","Jazzy James","3.1.9","0","a","NA","space","space","l","a","NA","485","NA","75051","19073","19415","485","NA","2","legacy","1024","2","48000","-16","experiment","2","even","absent","142317","142316","NA","157497","28681","142299","168323","168840","28711","103786","122877","168840","169327","NA","168307","Fraction component detection task","21","12380","22","yes","1280"
"95.652173913","95.652173913","559.173913043","559.173913043","#808080","no","legacy","legacy","legacy","0","uniform","1","undefined","undefined","undefined","1","l","0","0","0","22","0","0","22","22","0","0","0","22","22","0","22","Fri Apr 27 08:33:25 2018","#000000","high","4","The main experiment item","yes","","experiment.osexp","/Users/tom/github/sft-fraction/procedure","no","mono","no","24","no","white","no","yes","800","legacy","22","22","0","/Users/tom/github/sft-fraction/results/data/subject-2b.csv","legacy","#000000","high","7","Jazzy James","3.1.9","0","l","NA","space","space","l","l","NA","481","NA","75051","19073","19415","481","NA","2","legacy","1024","2","48000","-16","experiment","2","even","present","142317","142316","NA","157497","28681","142299","169422","169940","28711","103786","122877","169940","170423","NA","169407","Fraction component detection task","22","12861","23","yes","1280"
"95.8333333333","95.8333333333","558.541666667","558.541666667","#808080","no","legacy","legacy","legacy","0","uniform","1","undefined","undefined","undefined","1","a","0","0","0","23","0","0","23","23","0","0","0","23","23","0","23","Fri Apr 27 08:33:25 2018","#757575","low","3","The main experiment item","yes","","experiment.osexp","/Users/tom/github/sft-fraction/procedure","no","mono","no","24","no","white","no","yes","800","legacy","23","23","0","/Users/tom/github/sft-fraction/results/data/subject-2b.csv","legacy","#757575","low","4","Jazzy James","3.1.9","0","a","NA","space","space","l","a","NA","544","NA","75051","19073","19415","544","NA","2","legacy","1024","2","48000","-16","experiment","2","even","absent","142317","142316","NA","157497","28681","142299","170520","171036","28711","103786","122877","171037","171583","NA","170504","Fraction component detection task","23","13405","24","yes","1280"
"96","96","560.32","560.32","#808080","no","legacy","legacy","legacy","0","uniform","1","undefined","undefined","undefined","1","a","0","0","0","24","0","0","24","24","0","0","0","24","24","0","24","Fri Apr 27 08:33:25 2018","#000000","high","2","The main experiment item","yes","","experiment.osexp","/Users/tom/github/sft-fraction/procedure","no","mono","no","24","no","white","no","yes","800","legacy","24","24","0","/Users/tom/github/sft-fraction/results/data/subject-2b.csv","legacy","#757575","low","2","Jazzy James","3.1.9","0","a","NA","space","space","l","a","NA","603","NA","75051","19073","19415","603","NA","2","legacy","1024","2","48000","-16","experiment","2","even","absent","142317","142316","NA","157497","28681","142299","171685","172201","28711","103786","122877","172202","172807","NA","171667","Fraction component detection task","24","14008","25","yes","1280"
"96.1538461538","96.1538461538","564.961538462","564.961538462","#808080","no","legacy","legacy","legacy","0","uniform","1","undefined","undefined","undefined","1","a","0","0","0","25","0","0","25","25","0","0","0","25","25","0","25","Fri Apr 27 08:33:25 2018","#757575","low","2","The main experiment item","yes","","experiment.osexp","/Users/tom/github/sft-fraction/procedure","no","mono","no","24","no","white","no","yes","800","legacy","25","25","0","/Users/tom/github/sft-fraction/results/data/subject-2b.csv","legacy","#000000","high","3","Jazzy James","3.1.9","0","a","NA","space","space","l","a","NA","681","NA","75051","19073","19415","681","NA","2","legacy","1024","2","48000","-16","experiment","2","even","absent","142317","142316","NA","157497","28681","142299","172911","173427","28711","103786","122877","173427","174111","NA","172889","Fraction component detection task","25","14689","26","yes","1280"
"96.2962962963","96.2962962963","560.777777778","560.777777778","#808080","no","legacy","legacy","legacy","0","uniform","1","undefined","undefined","undefined","1","a","0","0","0","26","0","0","26","26","0","0","0","26","26","0","26","Fri Apr 27 08:33:25 2018","#000000","high","2","The main experiment item","yes","","experiment.osexp","/Users/tom/github/sft-fraction/procedure","no","mono","no","24","no","white","no","yes","800","legacy","26","26","0","/Users/tom/github/sft-fraction/results/data/subject-2b.csv","legacy","#757575","low","2","Jazzy James","3.1.9","0","a","NA","space","space","l","a","NA","452","NA","75051","19073","19415","452","NA","2","legacy","1024","2","48000","-16","experiment","2","even","absent","142317","142316","NA","157497","28681","142299","174212","174728","28711","103786","122877","174729","175184","NA","174197","Fraction component detection task","26","15141","27","yes","1280"
"96.4285714286","96.4285714286","559.285714286","559.285714286","#808080","no","legacy","legacy","legacy","0","uniform","1","undefined","undefined","undefined","1","l","0","0","0","27","0","0","27","27","0","0","0","27","27","0","27","Fri Apr 27 08:33:25 2018","#757575","low","3","The main experiment item","yes","","experiment.osexp","/Users/tom/github/sft-fraction/procedure","no","mono","no","24","no","white","no","yes","800","legacy","27","27","0","/Users/tom/github/sft-fraction/results/data/subject-2b.csv","legacy","#000000","high","8","Jazzy James","3.1.9","0","l","NA","space","space","l","l","NA","519","NA","75051","19073","19415","519","NA","2","legacy","1024","2","48000","-16","experiment","2","even","present","142317","142316","NA","157497","28681","142299","175278","175797","28711","103786","122877","175798","176320","NA","175262","Fraction component detection task","27","15660","28","yes","1280"
"96.5517241379","96.5517241379","555.172413793","555.172413793","#808080","no","legacy","legacy","legacy","0","uniform","1","undefined","undefined","undefined","1","l","0","0","0","28","0","0","28","28","0","0","0","28","28","0","28","Fri Apr 27 08:33:25 2018","#757575","low","2","The main experiment item","yes","","experiment.osexp","/Users/tom/github/sft-fraction/procedure","no","mono","no","24","no","white","no","yes","800","legacy","28","28","0","/Users/tom/github/sft-fraction/results/data/subject-2b.csv","legacy","#000000","high","8","Jazzy James","3.1.9","0","l","NA","space","space","l","l","NA","440","NA","75051","19073","19415","440","NA","2","legacy","1024","2","48000","-16","experiment","2","even","present","142317","142316","NA","157497","28681","142299","176416","176932","28711","103786","122877","176933","177375","NA","176400","Fraction component detection task","28","16100","29","yes","1280"
"96.6666666667","96.6666666667","561.366666667","561.366666667","#808080","no","legacy","legacy","legacy","0","uniform","1","undefined","undefined","undefined","1","a","0","0","0","29","0","0","29","29","0","0","0","29","29","0","29","Fri Apr 27 08:33:25 2018","#757575","low","2","The main experiment item","yes","","experiment.osexp","/Users/tom/github/sft-fraction/procedure","no","mono","no","24","no","white","no","yes","800","legacy","29","29","0","/Users/tom/github/sft-fraction/results/data/subject-2b.csv","legacy","#000000","high","4","Jazzy James","3.1.9","0","a","NA","space","space","l","a","NA","741","NA","75051","19073","19415","741","NA","2","legacy","1024","2","48000","-16","experiment","2","even","absent","142317","142316","NA","157497","28681","142299","177483","178001","28711","103786","122877","178001","178743","NA","177462","Fraction component detection task","29","16841","30","yes","1280"
"96.7741935484","96.7741935484","560.548387097","560.548387097","#808080","no","legacy","legacy","legacy","0","uniform","1","undefined","undefined","undefined","1","a","0","0","0","30","0","0","30","30","0","0","0","30","30","0","30","Fri Apr 27 08:33:25 2018","#000000","high","4","The main experiment item","yes","","experiment.osexp","/Users/tom/github/sft-fraction/procedure","no","mono","no","24","no","white","no","yes","800","legacy","30","30","0","/Users/tom/github/sft-fraction/results/data/subject-2b.csv","legacy","#757575","low","2","Jazzy James","3.1.9","0","a","NA","space","space","l","a","NA","536","NA","75051","19073","19415","536","NA","2","legacy","1024","2","48000","-16","experiment","2","even","absent","142317","142316","NA","157497","28681","142299","178839","179358","28711","103786","122877","179358","179896","NA","178823","Fraction component detection task","30","17377","31","yes","1280"
"96.875","96.875","557.625","557.625","#808080","no","legacy","legacy","legacy","0","uniform","1","undefined","undefined","undefined","1","a","0","0","0","31","0","0","31","31","0","0","0","31","31","0","31","Fri Apr 27 08:33:25 2018","#757575","low","3","The main experiment item","yes","","experiment.osexp","/Users/tom/github/sft-fraction/procedure","no","mono","no","24","no","white","no","yes","800","legacy","31","31","0","/Users/tom/github/sft-fraction/results/data/subject-2b.csv","legacy","#757575","low","4","Jazzy James","3.1.9","0","a","NA","space","space","l","a","NA","467","NA","75051","19073","19415","467","NA","2","legacy","1024","2","48000","-16","experiment","2","even","absent","142317","142316","NA","157497","28681","142299","179994","180514","28711","103786","122877","180515","180984","NA","179979","Fraction component detection task","31","17844","32","yes","1280"
"96.9696969697","96.9696969697","554.454545455","554.454545455","#808080","no","legacy","legacy","legacy","0","uniform","1","undefined","undefined","undefined","1","l","0","0","0","32","0","0","32","32","0","0","0","32","32","0","32","Fri Apr 27 08:33:25 2018","#000000","high","7","The main experiment item","yes","","experiment.osexp","/Users/tom/github/sft-fraction/procedure","no","mono","no","24","no","white","no","yes","800","legacy","32","32","0","/Users/tom/github/sft-fraction/results/data/subject-2b.csv","legacy","#757575","low","2","Jazzy James","3.1.9","0","l","NA","space","space","l","l","NA","453","NA","75051","19073","19415","453","NA","2","legacy","1024","2","48000","-16","experiment","2","even","present","142317","142316","NA","157497","28681","142299","181081","181599","28711","103786","122877","181600","182055","NA","181064","Fraction component detection task","32","18297","33","yes","1280"
"97.0588235294","97.0588235294","550.823529412","550.823529412","#808080","no","legacy","legacy","legacy","0","uniform","1","undefined","undefined","undefined","1","l","0","0","0","33","0","0","33","33","0","0","0","33","33","0","33","Fri Apr 27 08:33:25 2018","#000000","high","2","The main experiment item","yes","","experiment.osexp","/Users/tom/github/sft-fraction/procedure","no","mono","no","24","no","white","no","yes","800","legacy","33","33","0","/Users/tom/github/sft-fraction/results/data/subject-2b.csv","legacy","#757575","low","8","Jazzy James","3.1.9","0","l","NA","space","space","l","l","NA","431","NA","75051","19073","19415","431","NA","2","legacy","1024","2","48000","-16","experiment","2","even","present","142317","142316","NA","157497","28681","142299","182152","182669","28711","103786","122877","182670","183103","NA","182135","Fraction component detection task","33","18728","34","yes","1280"
"94.2857142857","94.2857142857","548.657142857","548.657142857","#808080","no","legacy","legacy","legacy","0","uniform","0","undefined","undefined","undefined","0","a","0","0","0","34","0","0","34","34","0","0","0","34","34","0","34","Fri Apr 27 08:33:25 2018","#000000","high","3","The main experiment item","yes","","experiment.osexp","/Users/tom/github/sft-fraction/procedure","no","mono","no","24","no","white","no","yes","800","legacy","34","34","0","/Users/tom/github/sft-fraction/results/data/subject-2b.csv","legacy","#757575","low","4","Jazzy James","3.1.9","0","l","NA","space","space","l","l","NA","475","NA","75051","19073","19415","475","NA","2","legacy","1024","2","48000","-16","experiment","2","even","absent","142317","142316","NA","157497","28681","142299","183205","183723","28711","103786","122877","183723","184200","NA","183190","Fraction component detection task","33","19203","35","yes","1280"
"94.4444444444","94.4444444444","550.361111111","550.361111111","#808080","no","legacy","legacy","legacy","0","uniform","1","undefined","undefined","undefined","1","l","0","0","0","35","0","0","35","35","0","0","0","35","35","0","35","Fri Apr 27 08:33:25 2018","#757575","low","2","The main experiment item","yes","","experiment.osexp","/Users/tom/github/sft-fraction/procedure","no","mono","no","24","no","white","no","yes","800","legacy","35","35","0","/Users/tom/github/sft-fraction/results/data/subject-2b.csv","legacy","#757575","low","6","Jazzy James","3.1.9","0","l","NA","space","space","l","l","NA","610","NA","75051","19073","19415","610","NA","2","legacy","1024","2","48000","-16","experiment","2","even","present","142317","142316","NA","184221","28681","142299","185325","185844","28711","103786","122877","185844","186456","NA","185302","Fraction component detection task","34","19813","36","yes","1280"
"94.5945945946","94.5945945946","551.918918919","551.918918919","#808080","no","legacy","legacy","legacy","0","uniform","1","undefined","undefined","undefined","1","l","0","0","0","36","0","0","36","36","0","0","0","36","36","0","36","Fri Apr 27 08:33:25 2018","#000000","high","8","The main experiment item","yes","","experiment.osexp","/Users/tom/github/sft-fraction/procedure","no","mono","no","24","no","white","no","yes","800","legacy","36","36","0","/Users/tom/github/sft-fraction/results/data/subject-2b.csv","legacy","#000000","high","2","Jazzy James","3.1.9","0","l","NA","space","space","l","l","NA","608","NA","75051","19073","19415","608","NA","2","legacy","1024","2","48000","-16","experiment","2","even","present","142317","142316","NA","184221","28681","142299","186559","187078","28711","103786","122877","187078","187688","NA","186539","Fraction component detection task","35","20421","37","yes","1280"
"92.1052631579","92.1052631579","548.736842105","548.736842105","#808080","no","legacy","legacy","legacy","0","uniform","0","undefined","undefined","undefined","0","l","0","0","0","37","0","0","37","37","0","0","0","37","37","0","37","Fri Apr 27 08:33:25 2018","#000000","high","7","The main experiment item","yes","","experiment.osexp","/Users/tom/github/sft-fraction/procedure","no","mono","no","24","no","white","no","yes","800","legacy","37","37","0","/Users/tom/github/sft-fraction/results/data/subject-2b.csv","legacy","#000000","high","7","Jazzy James","3.1.9","0","a","NA","space","space","l","a","NA","431","NA","75051","19073","19415","431","NA","2","legacy","1024","2","48000","-16","experiment","2","even","present","142317","142316","NA","184221","28681","142299","187793","188311","28711","103786","122877","188311","188744","NA","187774","Fraction component detection task","35","20852","38","yes","1280"
"92.3076923077","92.3076923077","604.025641026","604.025641026","#808080","no","legacy","legacy","legacy","0","uniform","1","undefined","undefined","undefined","1","a","0","0","0","38","0","0","38","38","0","0","0","38","38","0","38","Fri Apr 27 08:33:25 2018","#757575","low","2","The main experiment item","yes","","experiment.osexp","/Users/tom/github/sft-fraction/procedure","no","mono","no","24","no","white","no","yes","800","legacy","38","38","0","/Users/tom/github/sft-fraction/results/data/subject-2b.csv","legacy","#757575","low","4","Jazzy James","3.1.9","0","a","NA","space","space","l","a","NA","2705","NA","75051","19073","19415","2705","NA","2","legacy","1024","2","48000","-16","experiment","2","even","absent","142317","142316","NA","188763","28681","142299","189862","190380","28711","103786","122877","190380","193088","NA","189844","Fraction component detection task","36","23557","39","yes","1280"
"92.5","92.5","603.075","603.075","#808080","no","legacy","legacy","legacy","0","uniform","1","undefined","undefined","undefined","1","a","0","0","0","39","0","0","39","39","0","0","0","39","39","0","39","Fri Apr 27 08:33:25 2018","#000000","high","2","The main experiment item","yes","","experiment.osexp","/Users/tom/github/sft-fraction/procedure","no","mono","no","24","no","white","no","yes","800","legacy","39","39","0","/Users/tom/github/sft-fraction/results/data/subject-2b.csv","legacy","#757575","low","3","Jazzy James","3.1.9","0","a","NA","space","space","l","a","NA","566","NA","75051","19073","19415","566","NA","2","legacy","1024","2","48000","-16","experiment","2","even","absent","142317","142316","NA","188763","28681","142299","193187","193703","28711","103786","122877","193704","194272","NA","193168","Fraction component detection task","37","24123","40","yes","1280"
"92.6829268293","92.6829268293","602.707317073","602.707317073","#808080","no","legacy","legacy","legacy","0","uniform","1","undefined","undefined","undefined","1","a","0","0","0","40","0","0","40","40","0","0","0","40","40","0","40","Fri Apr 27 08:33:25 2018","#757575","low","4","The main experiment item","yes","","experiment.osexp","/Users/tom/github/sft-fraction/procedure","no","mono","no","24","no","white","no","yes","800","legacy","40","40","0","/Users/tom/github/sft-fraction/results/data/subject-2b.csv","legacy","#757575","low","4","Jazzy James","3.1.9","0","a","NA","space","space","l","a","NA","588","NA","75051","19073","19415","588","NA","2","legacy","1024","2","48000","-16","experiment","2","even","absent","142317","142316","NA","188763","28681","142299","194367","194883","28711","103786","122877","194883","195473","NA","194351","Fraction component detection task","38","24711","41","yes","1280"
"92.8571428571","92.8571428571","612.714285714","612.714285714","#808080","no","legacy","legacy","legacy","0","uniform","1","undefined","undefined","undefined","1","l","0","0","0","41","0","0","41","41","0","0","0","41","41","0","41","Fri Apr 27 08:33:25 2018","#757575","low","6","The main experiment item","yes","","experiment.osexp","/Users/tom/github/sft-fraction/procedure","no","mono","no","24","no","white","no","yes","800","legacy","41","41","0","/Users/tom/github/sft-fraction/results/data/subject-2b.csv","legacy","#757575","low","6","Jazzy James","3.1.9","0","l","NA","space","space","l","l","NA","1023","NA","75051","19073","19415","1023","NA","2","legacy","1024","2","48000","-16","experiment","2","even","present","142317","142316","NA","188763","28681","142299","195571","196087","28711","103786","122877","196087","197112","NA","195555","Fraction component detection task","39","25734","42","yes","1280"
"93.023255814","93.023255814","616.325581395","616.325581395","#808080","no","legacy","legacy","legacy","0","uniform","1","undefined","undefined","undefined","1","a","0","0","0","42","0","0","42","42","0","0","0","42","42","0","42","Fri Apr 27 08:33:25 2018","#757575","low","2","The main experiment item","yes","","experiment.osexp","/Users/tom/github/sft-fraction/procedure","no","mono","no","24","no","white","no","yes","800","legacy","42","42","0","/Users/tom/github/sft-fraction/results/data/subject-2b.csv","legacy","#000000","high","4","Jazzy James","3.1.9","0","a","NA","space","space","l","a","NA","768","NA","75051","19073","19415","768","NA","2","legacy","1024","2","48000","-16","experiment","2","even","absent","142317","142316","NA","188763","28681","142299","197216","197735","28711","103786","122877","197735","198505","NA","197200","Fraction component detection task","40","26502","43","yes","1280"
"93.1818181818","93.1818181818","616.909090909","616.909090909","#808080","no","legacy","legacy","legacy","0","uniform","1","undefined","undefined","undefined","1","a","0","0","0","43","0","0","43","43","0","0","0","43","43","0","43","Fri Apr 27 08:33:25 2018","#000000","high","4","The main experiment item","yes","","experiment.osexp","/Users/tom/github/sft-fraction/procedure","no","mono","no","24","no","white","no","yes","800","legacy","43","43","0","/Users/tom/github/sft-fraction/results/data/subject-2b.csv","legacy","#000000","high","4","Jazzy James","3.1.9","0","a","NA","space","space","l","a","NA","642","NA","75051","19073","19415","642","NA","2","legacy","1024","2","48000","-16","experiment","2","even","absent","142317","142316","NA","188763","28681","142299","198603","199125","28711","103786","122877","199125","199769","NA","198588","Fraction component detection task","41","27144","44","yes","1280"
"93.3333333333","93.3333333333","614.466666667","614.466666667","#808080","no","legacy","legacy","legacy","0","uniform","1","undefined","undefined","undefined","1","a","0","0","0","44","0","0","44","44","0","0","0","44","44","0","44","Fri Apr 27 08:33:25 2018","#757575","low","4","The main experiment item","yes","","experiment.osexp","/Users/tom/github/sft-fraction/procedure","no","mono","no","24","no","white","no","yes","800","legacy","44","44","0","/Users/tom/github/sft-fraction/results/data/subject-2b.csv","legacy","#757575","low","2","Jazzy James","3.1.9","0","a","NA","space","space","l","a","NA","507","NA","75051","19073","19415","507","NA","2","legacy","1024","2","48000","-16","experiment","2","even","absent","142317","142316","NA","188763","28681","142299","199871","200388","28711","103786","122877","200388","200897","NA","199856","Fraction component detection task","42","27651","45","yes","1280"
"93.4782608696","93.4782608696","612.891304348","612.891304348","#808080","no","legacy","legacy","legacy","0","uniform","1","undefined","undefined","undefined","1","a","0","0","0","45","0","0","45","45","0","0","0","45","45","0","45","Fri Apr 27 08:33:25 2018","#757575","low","3","The main experiment item","yes","","experiment.osexp","/Users/tom/github/sft-fraction/procedure","no","mono","no","24","no","white","no","yes","800","legacy","45","45","0","/Users/tom/github/sft-fraction/results/data/subject-2b.csv","legacy","#757575","low","4","Jazzy James","3.1.9","0","a","NA","space","space","l","a","NA","542","NA","75051","19073","19415","542","NA","2","legacy","1024","2","48000","-16","experiment","2","even","absent","142317","142316","NA","188763","28681","142299","200995","201512","28711","103786","122877","201512","202056","NA","200979","Fraction component detection task","43","28193","46","yes","1280"
"93.6170212766","93.6170212766","609.276595745","609.276595745","#808080","no","legacy","legacy","legacy","0","uniform","1","undefined","undefined","undefined","1","l","0","0","0","46","0","0","46","46","0","0","0","46","46","0","46","Fri Apr 27 08:33:25 2018","#000000","high","4","The main experiment item","yes","","experiment.osexp","/Users/tom/github/sft-fraction/procedure","no","mono","no","24","no","white","no","yes","800","legacy","46","46","0","/Users/tom/github/sft-fraction/results/data/subject-2b.csv","legacy","#757575","low","8","Jazzy James","3.1.9","0","l","NA","space","space","l","l","NA","443","NA","75051","19073","19415","443","NA","2","legacy","1024","2","48000","-16","experiment","2","even","present","142317","142316","NA","188763","28681","142299","202163","202683","28711","103786","122877","202683","203128","NA","202138","Fraction component detection task","44","28636","47","yes","1280"
"93.75","93.75","604.979166667","604.979166667","#808080","no","legacy","legacy","legacy","0","uniform","1","undefined","undefined","undefined","1","l","0","0","0","47","0","0","47","47","0","0","0","47","47","0","47","Fri Apr 27 08:33:25 2018","#000000","high","8","The main experiment item","yes","","experiment.osexp","/Users/tom/github/sft-fraction/procedure","no","mono","no","24","no","white","no","yes","800","legacy","47","47","0","/Users/tom/github/sft-fraction/results/data/subject-2b.csv","legacy","#757575","low","2","Jazzy James","3.1.9","0","l","NA","space","space","l","l","NA","403","NA","75051","19073","19415","403","NA","2","legacy","1024","2","48000","-16","experiment","2","even","present","142317","142316","NA","188763","28681","142299","203229","203748","28711","103786","122877","203748","204153","NA","203208","Fraction component detection task","45","29039","48","yes","1280"
"93.8775510204","93.8775510204","600.673469388","600.673469388","#808080","no","legacy","legacy","legacy","0","uniform","1","undefined","undefined","undefined","1","l","0","0","0","48","0","0","48","48","0","0","0","48","48","0","48","Fri Apr 27 08:33:25 2018","#757575","low","7","The main experiment item","yes","","experiment.osexp","/Users/tom/github/sft-fraction/procedure","no","mono","no","24","no","white","no","yes","800","legacy","48","48","0","/Users/tom/github/sft-fraction/results/data/subject-2b.csv","legacy","#000000","high","7","Jazzy James","3.1.9","0","l","NA","space","space","l","l","NA","394","NA","75051","19073","19415","394","NA","2","legacy","1024","2","48000","-16","experiment","2","even","present","142317","142316","NA","188763","28681","142299","204260","204780","28711","103786","122877","204781","205177","NA","204238","Fraction component detection task","46","29433","49","yes","1280"
"94","94","596.14","596.14","#808080","no","legacy","legacy","legacy","0","uniform","1","undefined","undefined","undefined","1","l","0","0","0","49","0","0","49","49","0","0","0","49","49","0","49","Fri Apr 27 08:33:25 2018","#000000","high","4","The main experiment item","yes","","experiment.osexp","/Users/tom/github/sft-fraction/procedure","no","mono","no","24","no","white","no","yes","800","legacy","49","49","0","/Users/tom/github/sft-fraction/results/data/subject-2b.csv","legacy","#000000","high","8","Jazzy James","3.1.9","0","l","NA","space","space","l","l","NA","374","NA","75051","19073","19415","374","NA","2","legacy","1024","2","48000","-16","experiment","2","even","present","142317","142316","NA","188763","28681","142299","205277","205793","28711","103786","122877","205793","206169","NA","205260","Fraction component detection task","47","29807","50","yes","1280"
"94.1176470588","94.1176470588","592.823529412","592.823529412","#808080","no","legacy","legacy","legacy","0","uniform","1","undefined","undefined","undefined","1","a","0","0","0","50","0","0","50","50","0","0","0","50","50","0","50","Fri Apr 27 08:33:25 2018","#000000","high","3","The main experiment item","yes","","experiment.osexp","/Users/tom/github/sft-fraction/procedure","no","mono","no","24","no","white","no","yes","800","legacy","50","50","0","/Users/tom/github/sft-fraction/results/data/subject-2b.csv","legacy","#757575","low","4","Jazzy James","3.1.9","0","a","NA","space","space","l","a","NA","427","NA","75051","19073","19415","427","NA","2","legacy","1024","2","48000","-16","experiment","2","even","absent","142317","142316","NA","188763","28681","142299","206275","206796","28711","103786","122877","206796","207226","NA","206254","Fraction component detection task","48","30234","51","yes","1280"
"94.2307692308","94.2307692308","589.307692308","589.307692308","#808080","no","legacy","legacy","legacy","0","uniform","1","undefined","undefined","undefined","1","l","0","0","0","51","0","0","51","51","0","0","0","51","51","0","51","Fri Apr 27 08:33:25 2018","#000000","high","2","The main experiment item","yes","","experiment.osexp","/Users/tom/github/sft-fraction/procedure","no","mono","no","24","no","white","no","yes","800","legacy","51","51","0","/Users/tom/github/sft-fraction/results/data/subject-2b.csv","legacy","#000000","high","8","Jazzy James","3.1.9","0","l","NA","space","space","l","l","NA","410","NA","75051","19073","19415","410","NA","2","legacy","1024","2","48000","-16","experiment","2","even","present","142317","142316","NA","188763","28681","142299","207327","207845","28711","103786","122877","207845","208257","NA","207305","Fraction component detection task","49","30644","52","yes","1280"
"94.3396226415","94.3396226415","585.79245283","585.79245283","#808080","no","legacy","legacy","legacy","0","uniform","1","undefined","undefined","undefined","1","a","0","0","0","52","0","0","52","52","0","0","0","52","52","0","52","Fri Apr 27 08:33:25 2018","#000000","high","2","The main experiment item","yes","","experiment.osexp","/Users/tom/github/sft-fraction/procedure","no","mono","no","24","no","white","no","yes","800","legacy","52","52","0","/Users/tom/github/sft-fraction/results/data/subject-2b.csv","legacy","#000000","high","3","Jazzy James","3.1.9","0","a","NA","space","space","l","a","NA","403","NA","75051","19073","19415","403","NA","2","legacy","1024","2","48000","-16","experiment","2","even","absent","142317","142316","NA","188763","28681","142299","208351","208868","28711","103786","122877","208868","209273","NA","208335","Fraction component detection task","50","31047","53","yes","1280"
"94.4444444444","94.4444444444","582.388888889","582.388888889","#808080","no","legacy","legacy","legacy","0","uniform","1","undefined","undefined","undefined","1","a","0","0","0","53","0","0","53","53","0","0","0","53","53","0","53","Fri Apr 27 08:33:25 2018","#000000","high","3","The main experiment item","yes","","experiment.osexp","/Users/tom/github/sft-fraction/procedure","no","mono","no","24","no","white","no","yes","800","legacy","53","53","0","/Users/tom/github/sft-fraction/results/data/subject-2b.csv","legacy","#000000","high","4","Jazzy James","3.1.9","0","a","NA","space","space","l","a","NA","402","NA","75051","19073","19415","402","NA","2","legacy","1024","2","48000","-16","experiment","2","even","absent","142317","142316","NA","188763","28681","142299","209372","209892","28711","103786","122877","209893","210297","NA","209357","Fraction component detection task","51","31449","54","yes","1280"
"94.5454545455","94.5454545455","582.981818182","582.981818182","#808080","no","legacy","legacy","legacy","0","uniform","1","undefined","undefined","undefined","1","l","0","0","0","54","0","0","54","54","0","0","0","54","54","0","54","Fri Apr 27 08:33:25 2018","#757575","low","6","The main experiment item","yes","","experiment.osexp","/Users/tom/github/sft-fraction/procedure","no","mono","no","24","no","white","no","yes","800","legacy","54","54","0","/Users/tom/github/sft-fraction/results/data/subject-2b.csv","legacy","#000000","high","3","Jazzy James","3.1.9","0","l","NA","space","space","l","l","NA","615","NA","75051","19073","19415","615","NA","2","legacy","1024","2","48000","-16","experiment","2","even","present","142317","142316","NA","188763","28681","142299","210395","210912","28711","103786","122877","210912","211530","NA","210379","Fraction component detection task","52","32064","55","yes","1280"
"94.6428571429","94.6428571429","584.875","584.875","#808080","no","legacy","legacy","legacy","0","uniform","1","undefined","undefined","undefined","1","l","0","0","0","55","0","0","55","55","0","0","0","55","55","0","55","Fri Apr 27 08:33:25 2018","#757575","low","4","The main experiment item","yes","","experiment.osexp","/Users/tom/github/sft-fraction/procedure","no","mono","no","24","no","white","no","yes","800","legacy","55","55","0","/Users/tom/github/sft-fraction/results/data/subject-2b.csv","legacy","#757575","low","6","Jazzy James","3.1.9","0","l","NA","space","space","l","l","NA","689","NA","75051","19073","19415","689","NA","2","legacy","1024","2","48000","-16","experiment","2","even","present","142317","142316","NA","188763","28681","142299","211626","212143","28711","103786","122877","212143","212835","NA","211610","Fraction component detection task","53","32753","56","yes","1280"
"94.7368421053","94.7368421053","583.070175439","583.070175439","#808080","no","legacy","legacy","legacy","0","uniform","1","undefined","undefined","undefined","1","l","0","0","0","56","0","0","56","56","0","0","0","56","56","0","56","Fri Apr 27 08:33:25 2018","#000000","high","6","The main experiment item","yes","","experiment.osexp","/Users/tom/github/sft-fraction/procedure","no","mono","no","24","no","white","no","yes","800","legacy","56","56","0","/Users/tom/github/sft-fraction/results/data/subject-2b.csv","legacy","#000000","high","6","Jazzy James","3.1.9","0","l","NA","space","space","l","l","NA","482","NA","75051","19073","19415","482","NA","2","legacy","1024","2","48000","-16","experiment","2","even","present","142317","142316","NA","188763","28681","142299","212933","213453","28711","103786","122877","213453","213939","NA","212917","Fraction component detection task","54","33235","57","yes","1280"
"94.8275862069","94.8275862069","582.172413793","582.172413793","#808080","no","legacy","legacy","legacy","0","uniform","1","undefined","undefined","undefined","1","l","0","0","0","57","0","0","57","57","0","0","0","57","57","0","57","Fri Apr 27 08:33:25 2018","#757575","low","7","The main experiment item","yes","","experiment.osexp","/Users/tom/github/sft-fraction/procedure","no","mono","no","24","no","white","no","yes","800","legacy","57","57","0","/Users/tom/github/sft-fraction/results/data/subject-2b.csv","legacy","#757575","low","8","Jazzy James","3.1.9","0","l","NA","space","space","l","l","NA","531","NA","75051","19073","19415","531","NA","2","legacy","1024","2","48000","-16","experiment","2","even","present","142317","142316","NA","188763","28681","142299","214037","214555","28711","103786","122877","214555","215089","NA","214017","Fraction component detection task","55","33766","58","yes","1280"
"94.9152542373","94.9152542373","581.644067797","581.644067797","#808080","no","legacy","legacy","legacy","0","uniform","1","undefined","undefined","undefined","1","l","0","0","0","58","0","0","58","58","0","0","0","58","58","0","58","Fri Apr 27 08:33:25 2018","#000000","high","3","The main experiment item","yes","","experiment.osexp","/Users/tom/github/sft-fraction/procedure","no","mono","no","24","no","white","no","yes","800","legacy","58","58","0","/Users/tom/github/sft-fraction/results/data/subject-2b.csv","legacy","#000000","high","6","Jazzy James","3.1.9","0","l","NA","space","space","l","l","NA","551","NA","75051","19073","19415","551","NA","2","legacy","1024","2","48000","-16","experiment","2","even","present","142317","142316","NA","188763","28681","142299","215187","215705","28711","103786","122877","215705","216258","NA","215172","Fraction component detection task","56","34317","59","yes","1280"
"95","95","581","581","#808080","no","legacy","legacy","legacy","0","uniform","1","undefined","undefined","undefined","1","a","0","0","0","59","0","0","59","59","0","0","0","59","59","0","59","Fri Apr 27 08:33:25 2018","#757575","low","3","The main experiment item","yes","","experiment.osexp","/Users/tom/github/sft-fraction/procedure","no","mono","no","24","no","white","no","yes","800","legacy","59","59","0","/Users/tom/github/sft-fraction/results/data/subject-2b.csv","legacy","#000000","high","2","Jazzy James","3.1.9","0","a","NA","space","space","l","a","NA","543","NA","75051","19073","19415","543","NA","2","legacy","1024","2","48000","-16","experiment","2","even","absent","142317","142316","NA","188763","28681","142299","216356","216872","28711","103786","122877","216873","217418","NA","216337","Fraction component detection task","57","34860","60","yes","1280"
"95.0819672131","95.0819672131","580.213114754","580.213114754","#808080","no","legacy","legacy","legacy","0","uniform","1","undefined","undefined","undefined","1","l","0","0","0","60","0","0","60","60","0","0","0","60","60","0","60","Fri Apr 27 08:33:25 2018","#757575","low","8","The main experiment item","yes","","experiment.osexp","/Users/tom/github/sft-fraction/procedure","no","mono","no","24","no","white","no","yes","800","legacy","60","60","0","/Users/tom/github/sft-fraction/results/data/subject-2b.csv","legacy","#757575","low","8","Jazzy James","3.1.9","0","l","NA","space","space","l","l","NA","533","NA","75051","19073","19415","533","NA","2","legacy","1024","2","48000","-16","experiment","2","even","present","142317","142316","NA","188763","28681","142299","217519","218035","28711","103786","122877","218035","218571","NA","217502","Fraction component detection task","58","35393","61","yes","1280"
"95.1612903226","95.1612903226","586.693548387","586.693548387","#808080","no","legacy","legacy","legacy","0","uniform","1","undefined","undefined","undefined","1","l","0","0","0","61","0","0","61","61","0","0","0","61","61","0","61","Fri Apr 27 08:33:25 2018","#000000","high","6","The main experiment item","yes","","experiment.osexp","/Users/tom/github/sft-fraction/procedure","no","mono","no","24","no","white","no","yes","800","legacy","61","61","0","/Users/tom/github/sft-fraction/results/data/subject-2b.csv","legacy","#757575","low","3","Jazzy James","3.1.9","0","l","NA","space","space","l","l","NA","982","NA","75051","19073","19415","982","NA","2","legacy","1024","2","48000","-16","experiment","2","even","present","142317","142316","NA","188763","28681","142299","218677","219194","28711","103786","122877","219194","220178","NA","218656","Fraction component detection task","59","36375","62","yes","1280"
"95.2380952381","95.2380952381","584.682539683","584.682539683","#808080","no","legacy","legacy","legacy","0","uniform","1","undefined","undefined","undefined","1","l","0","0","0","62","0","0","62","62","0","0","0","62","62","0","62","Fri Apr 27 08:33:25 2018","#000000","high","2","The main experiment item","yes","","experiment.osexp","/Users/tom/github/sft-fraction/procedure","no","mono","no","24","no","white","no","yes","800","legacy","62","62","0","/Users/tom/github/sft-fraction/results/data/subject-2b.csv","legacy","#000000","high","7","Jazzy James","3.1.9","0","l","NA","space","space","l","l","NA","460","NA","75051","19073","19415","460","NA","2","legacy","1024","2","48000","-16","experiment","2","even","present","142317","142316","NA","188763","28681","142299","220280","220796","28711","103786","122877","220796","221258","NA","220263","Fraction component detection task","60","36835","63","yes","1280"
"95.3125","95.3125","581.765625","581.765625","#808080","no","legacy","legacy","legacy","0","uniform","1","undefined","undefined","undefined","1","l","0","0","0","63","0","0","63","63","0","0","0","63","63","0","63","Fri Apr 27 08:33:25 2018","#000000","high","6","The main experiment item","yes","","experiment.osexp","/Users/tom/github/sft-fraction/procedure","no","mono","no","24","no","white","no","yes","800","legacy","63","63","0","/Users/tom/github/sft-fraction/results/data/subject-2b.csv","legacy","#757575","low","4","Jazzy James","3.1.9","0","l","NA","space","space","l","l","NA","398","NA","75051","19073","19415","398","NA","2","legacy","1024","2","48000","-16","experiment","2","even","present","142317","142316","NA","188763","28681","142299","221355","221874","28711","103786","122877","221874","222274","NA","221339","Fraction component detection task","61","37233","64","yes","1280"
"95.3846153846","95.3846153846","578.8","578.8","#808080","no","legacy","legacy","legacy","0","uniform","1","undefined","undefined","undefined","1","a","0","0","0","64","0","0","64","64","0","0","0","64","64","0","64","Fri Apr 27 08:33:25 2018","#757575","low","3","The main experiment item","yes","","experiment.osexp","/Users/tom/github/sft-fraction/procedure","no","mono","no","24","no","white","no","yes","800","legacy","64","64","0","/Users/tom/github/sft-fraction/results/data/subject-2b.csv","legacy","#757575","low","3","Jazzy James","3.1.9","0","a","NA","space","space","l","a","NA","389","NA","75051","19073","19415","389","NA","2","legacy","1024","2","48000","-16","experiment","2","even","absent","142317","142316","NA","188763","28681","142299","222372","222890","28711","103786","122877","222891","223282","NA","222357","Fraction component detection task","62","37622","65","yes","1280"
"95.4545454545","95.4545454545","580.333333333","580.333333333","#808080","no","legacy","legacy","legacy","0","uniform","1","undefined","undefined","undefined","1","a","0","0","0","65","0","0","65","65","0","0","0","65","65","0","65","Fri Apr 27 08:33:25 2018","#000000","high","4","The main experiment item","yes","","experiment.osexp","/Users/tom/github/sft-fraction/procedure","no","mono","no","24","no","white","no","yes","800","legacy","65","65","0","/Users/tom/github/sft-fraction/results/data/subject-2b.csv","legacy","#000000","high","2","Jazzy James","3.1.9","0","a","NA","space","space","l","a","NA","680","NA","75051","19073","19415","680","NA","2","legacy","1024","2","48000","-16","experiment","2","even","absent","142317","142316","NA","188763","28681","142299","223383","223903","28711","103786","122877","223904","224586","NA","223365","Fraction component detection task","63","38302","66","yes","1280"
"95.5223880597","95.5223880597","579.223880597","579.223880597","#808080","no","legacy","legacy","legacy","0","uniform","1","undefined","undefined","undefined","1","l","0","0","0","66","0","0","66","66","0","0","0","66","66","0","66","Fri Apr 27 08:33:25 2018","#000000","high","7","The main experiment item","yes","","experiment.osexp","/Users/tom/github/sft-fraction/procedure","no","mono","no","24","no","white","no","yes","800","legacy","66","66","0","/Users/tom/github/sft-fraction/results/data/subject-2b.csv","legacy","#000000","high","3","Jazzy James","3.1.9","0","l","NA","space","space","l","l","NA","506","NA","75051","19073","19415","506","NA","2","legacy","1024","2","48000","-16","experiment","2","even","present","142317","142316","NA","188763","28681","142299","224685","225206","28711","103786","122877","225206","225714","NA","224669","Fraction component detection task","64","38808","67","yes","1280"
"95.5882352941","95.5882352941","578.926470588","578.926470588","#808080","no","legacy","legacy","legacy","0","uniform","1","undefined","undefined","undefined","1","a","0","0","0","67","0","0","67","67","0","0","0","67","67","0","67","Fri Apr 27 08:33:25 2018","#000000","high","2","The main experiment item","yes","","experiment.osexp","/Users/tom/github/sft-fraction/procedure","no","mono","no","24","no","white","no","yes","800","legacy","67","67","0","/Users/tom/github/sft-fraction/results/data/subject-2b.csv","legacy","#000000","high","4","Jazzy James","3.1.9","0","a","NA","space","space","l","a","NA","559","NA","75051","19073","19415","559","NA","2","legacy","1024","2","48000","-16","experiment","2","even","absent","142317","142316","NA","188763","28681","142299","225820","226336","28711","103786","122877","226337","226899","NA","225799","Fraction component detection task","65","39367","68","yes","1280"
"94.2028985507","94.2028985507","577.405797101","577.405797101","#808080","no","legacy","legacy","legacy","0","uniform","0","undefined","undefined","undefined","0","l","0","0","0","68","0","0","68","68","0","0","0","68","68","0","68","Fri Apr 27 08:33:25 2018","#757575","low","8","The main experiment item","yes","","experiment.osexp","/Users/tom/github/sft-fraction/procedure","no","mono","no","24","no","white","no","yes","800","legacy","68","68","0","/Users/tom/github/sft-fraction/results/data/subject-2b.csv","legacy","#000000","high","8","Jazzy James","3.1.9","0","a","NA","space","space","l","a","NA","474","NA","75051","19073","19415","474","NA","2","legacy","1024","2","48000","-16","experiment","2","even","present","142317","142316","NA","188763","28681","142299","226999","227518","28711","103786","122877","227518","227995","NA","226979","Fraction component detection task","65","39841","69","yes","1280"
"94.2857142857","94.2857142857","580.585714286","580.585714286","#808080","no","legacy","legacy","legacy","0","uniform","1","undefined","undefined","undefined","1","a","0","0","0","69","0","0","69","69","0","0","0","69","69","0","69","Fri Apr 27 08:33:25 2018","#757575","low","2","The main experiment item","yes","","experiment.osexp","/Users/tom/github/sft-fraction/procedure","no","mono","no","24","no","white","no","yes","800","legacy","69","69","0","/Users/tom/github/sft-fraction/results/data/subject-2b.csv","legacy","#000000","high","2","Jazzy James","3.1.9","0","a","NA","space","space","l","a","NA","800","NA","75051","19073","19415","800","NA","2","legacy","1024","2","48000","-16","experiment","2","even","absent","142317","142316","NA","228013","28681","142299","229106","229624","28711","103786","122877","229624","230427","NA","229090","Fraction component detection task","66","40641","70","yes","1280"
"94.3661971831","94.3661971831","579.845070423","579.845070423","#808080","no","legacy","legacy","legacy","0","uniform","1","undefined","undefined","undefined","1","l","0","0","0","70","0","0","70","70","0","0","0","70","70","0","70","Fri Apr 27 08:33:25 2018","#757575","low","8","The main experiment item","yes","","experiment.osexp","/Users/tom/github/sft-fraction/procedure","no","mono","no","24","no","white","no","yes","800","legacy","70","70","0","/Users/tom/github/sft-fraction/results/data/subject-2b.csv","legacy","#000000","high","7","Jazzy James","3.1.9","0","l","NA","space","space","l","l","NA","528","NA","75051","19073","19415","528","NA","2","legacy","1024","2","48000","-16","experiment","2","even","present","142317","142316","NA","228013","28681","142299","230531","231048","28711","103786","122877","231048","231579","NA","230511","Fraction component detection task","67","41169","71","yes","1280"
"94.4444444444","94.4444444444","579.527777778","579.527777778","#808080","no","legacy","legacy","legacy","0","uniform","1","undefined","undefined","undefined","1","l","0","0","0","71","0","0","71","71","0","0","0","71","71","0","71","Fri Apr 27 08:33:25 2018","#757575","low","6","The main experiment item","yes","","experiment.osexp","/Users/tom/github/sft-fraction/procedure","no","mono","no","24","no","white","no","yes","800","legacy","71","71","0","/Users/tom/github/sft-fraction/results/data/subject-2b.csv","legacy","#000000","high","7","Jazzy James","3.1.9","0","l","NA","space","space","l","l","NA","557","NA","75051","19073","19415","557","NA","2","legacy","1024","2","48000","-16","experiment","2","even","present","142317","142316","NA","228013","28681","142299","231678","232195","28711","103786","122877","232195","232755","NA","231661","Fraction component detection task","68","41726","72","yes","1280"
"94.5205479452","94.5205479452","579.493150685","579.493150685","#808080","no","legacy","legacy","legacy","0","uniform","1","undefined","undefined","undefined","1","l","0","0","0","72","0","0","72","72","0","0","0","72","72","0","72","Fri Apr 27 08:33:25 2018","#757575","low","6","The main experiment item","yes","","experiment.osexp","/Users/tom/github/sft-fraction/procedure","no","mono","no","24","no","white","no","yes","800","legacy","72","72","0","/Users/tom/github/sft-fraction/results/data/subject-2b.csv","legacy","#757575","low","3","Jazzy James","3.1.9","0","l","NA","space","space","l","l","NA","577","NA","75051","19073","19415","577","NA","2","legacy","1024","2","48000","-16","experiment","2","even","present","142317","142316","NA","228013","28681","142299","232850","233367","28711","103786","122877","233367","233947","NA","232834","Fraction component detection task","69","42303","73","yes","1280"
"94.5945945946","94.5945945946","578.567567568","578.567567568","#808080","no","legacy","legacy","legacy","0","uniform","1","undefined","undefined","undefined","1","l","0","0","0","73","0","0","73","73","0","0","0","73","73","0","73","Fri Apr 27 08:33:25 2018","#757575","low","7","The main experiment item","yes","","experiment.osexp","/Users/tom/github/sft-fraction/procedure","no","mono","no","24","no","white","no","yes","800","legacy","73","73","0","/Users/tom/github/sft-fraction/results/data/subject-2b.csv","legacy","#757575","low","2","Jazzy James","3.1.9","0","l","NA","space","space","l","l","NA","511","NA","75051","19073","19415","511","NA","2","legacy","1024","2","48000","-16","experiment","2","even","present","142317","142316","NA","228013","28681","142299","234048","234569","28711","103786","122877","234569","235082","NA","234032","Fraction component detection task","70","42814","74","yes","1280"
"94.6666666667","94.6666666667","577.813333333","577.813333333","#808080","no","legacy","legacy","legacy","0","uniform","1","undefined","undefined","undefined","1","l","0","0","0","74","0","0","74","74","0","0","0","74","74","0","74","Fri Apr 27 08:33:25 2018","#757575","low","7","The main experiment item","yes","","experiment.osexp","/Users/tom/github/sft-fraction/procedure","no","mono","no","24","no","white","no","yes","800","legacy","74","74","0","/Users/tom/github/sft-fraction/results/data/subject-2b.csv","legacy","#000000","high","8","Jazzy James","3.1.9","0","l","NA","space","space","l","l","NA","522","NA","75051","19073","19415","522","NA","2","legacy","1024","2","48000","-16","experiment","2","even","present","142317","142316","NA","228013","28681","142299","235184","235702","28711","103786","122877","235703","236227","NA","235168","Fraction component detection task","71","43336","75","yes","1280"
"94.7368421053","94.7368421053","582.092105263","582.092105263","#808080","no","legacy","legacy","legacy","0","uniform","1","undefined","undefined","undefined","1","a","0","0","0","75","0","0","75","75","0","0","0","75","75","0","75","Fri Apr 27 08:33:25 2018","#757575","low","4","The main experiment item","yes","","experiment.osexp","/Users/tom/github/sft-fraction/procedure","no","mono","no","24","no","white","no","yes","800","legacy","75","75","0","/Users/tom/github/sft-fraction/results/data/subject-2b.csv","legacy","#757575","low","2","Jazzy James","3.1.9","0","a","NA","space","space","l","a","NA","903","NA","75051","19073","19415","903","NA","2","legacy","1024","2","48000","-16","experiment","2","even","absent","142317","142316","NA","228013","28681","142299","236326","236842","28711","103786","122877","236842","237747","NA","236310","Fraction component detection task","72","44239","76","yes","1280"
"94.8051948052","94.8051948052","582.519480519","582.519480519","#808080","no","legacy","legacy","legacy","0","uniform","1","undefined","undefined","undefined","1","a","0","0","0","76","0","0","76","76","0","0","0","76","76","0","76","Fri Apr 27 08:33:25 2018","#757575","low","2","The main experiment item","yes","","experiment.osexp","/Users/tom/github/sft-fraction/procedure","no","mono","no","24","no","white","no","yes","800","legacy","76","76","0","/Users/tom/github/sft-fraction/results/data/subject-2b.csv","legacy","#757575","low","3","Jazzy James","3.1.9","0","a","NA","space","space","l","a","NA","615","NA","75051","19073","19415","615","NA","2","legacy","1024","2","48000","-16","experiment","2","even","absent","142317","142316","NA","228013","28681","142299","237849","238369","28711","103786","122877","238370","238987","NA","237833","Fraction component detection task","73","44854","77","yes","1280"
"94.8717948718","94.8717948718","581.269230769","581.269230769","#808080","no","legacy","legacy","legacy","0","uniform","1","undefined","undefined","undefined","1","l","0","0","0","77","0","0","77","77","0","0","0","77","77","0","77","Fri Apr 27 08:33:25 2018","#000000","high","2","The main experiment item","yes","","experiment.osexp","/Users/tom/github/sft-fraction/procedure","no","mono","no","24","no","white","no","yes","800","legacy","77","77","0","/Users/tom/github/sft-fraction/results/data/subject-2b.csv","legacy","#757575","low","7","Jazzy James","3.1.9","0","l","NA","space","space","l","l","NA","485","NA","75051","19073","19415","485","NA","2","legacy","1024","2","48000","-16","experiment","2","even","present","142317","142316","NA","228013","28681","142299","239081","239603","28711","103786","122877","239603","240090","NA","239065","Fraction component detection task","74","45339","78","yes","1280"
"94.9367088608","94.9367088608","583.544303797","583.544303797","#808080","no","legacy","legacy","legacy","0","uniform","1","undefined","undefined","undefined","1","a","0","0","0","78","0","0","78","78","0","0","0","78","78","0","78","Fri Apr 27 08:33:25 2018","#757575","low","2","The main experiment item","yes","","experiment.osexp","/Users/tom/github/sft-fraction/procedure","no","mono","no","24","no","white","no","yes","800","legacy","78","78","0","/Users/tom/github/sft-fraction/results/data/subject-2b.csv","legacy","#757575","low","3","Jazzy James","3.1.9","0","a","NA","space","space","l","a","NA","761","NA","75051","19073","19415","761","NA","2","legacy","1024","2","48000","-16","experiment","2","even","absent","142317","142316","NA","228013","28681","142299","240186","240704","28711","103786","122877","240704","241467","NA","240170","Fraction component detection task","75","46100","79","yes","1280"
"95","95","582.0875","582.0875","#808080","no","legacy","legacy","legacy","0","uniform","1","undefined","undefined","undefined","1","l","0","0","0","79","0","0","79","79","0","0","0","79","79","0","79","Fri Apr 27 08:33:25 2018","#757575","low","6","The main experiment item","yes","","experiment.osexp","/Users/tom/github/sft-fraction/procedure","no","mono","no","24","no","white","no","yes","800","legacy","79","79","0","/Users/tom/github/sft-fraction/results/data/subject-2b.csv","legacy","#757575","low","4","Jazzy James","3.1.9","0","l","NA","space","space","l","l","NA","467","NA","75051","19073","19415","467","NA","2","legacy","1024","2","48000","-16","experiment","2","even","present","142317","142316","NA","228013","28681","142299","241573","242094","28711","103786","122877","242094","242563","NA","241551","Fraction component detection task","76","46567","80","yes","1280"
"93.8271604938","93.8271604938","580.617283951","580.617283951","#808080","no","legacy","legacy","legacy","0","uniform","0","undefined","undefined","undefined","0","a","0","0","0","80","0","0","80","80","0","0","0","80","80","0","80","Fri Apr 27 08:33:25 2018","#757575","low","4","The main experiment item","yes","","experiment.osexp","/Users/tom/github/sft-fraction/procedure","no","mono","no","24","no","white","no","yes","800","legacy","80","80","0","/Users/tom/github/sft-fraction/results/data/subject-2b.csv","legacy","#000000","high","4","Jazzy James","3.1.9","0","l","NA","space","space","l","l","NA","463","NA","75051","19073","19415","463","NA","2","legacy","1024","2","48000","-16","experiment","2","even","absent","142317","142316","NA","228013","28681","142299","242669","243186","28711","103786","122877","243186","243652","NA","242648","Fraction component detection task","76","47030","81","yes","1280"
"93.9024390244","93.9024390244","586.292682927","586.292682927","#808080","no","legacy","legacy","legacy","0","uniform","1","undefined","undefined","undefined","1","a","0","0","0","81","0","0","81","81","0","0","0","81","81","0","81","Fri Apr 27 08:33:25 2018","#000000","high","2","The main experiment item","yes","","experiment.osexp","/Users/tom/github/sft-fraction/procedure","no","mono","no","24","no","white","no","yes","800","legacy","81","81","0","/Users/tom/github/sft-fraction/results/data/subject-2b.csv","legacy","#757575","low","4","Jazzy James","3.1.9","0","a","NA","space","space","l","a","NA","1046","NA","75051","19073","19415","1046","NA","2","legacy","1024","2","48000","-16","experiment","2","even","absent","142317","142316","NA","243672","28681","142299","244774","245290","28711","103786","122877","245291","246340","NA","244754","Fraction component detection task","77","48076","82","yes","1280"
"93.9759036145","93.9759036145","585.542168675","585.542168675","#808080","no","legacy","legacy","legacy","0","uniform","1","undefined","undefined","undefined","1","a","0","0","0","82","0","0","82","82","0","0","0","82","82","0","82","Fri Apr 27 08:33:25 2018","#000000","high","3","The main experiment item","yes","","experiment.osexp","/Users/tom/github/sft-fraction/procedure","no","mono","no","24","no","white","no","yes","800","legacy","82","82","0","/Users/tom/github/sft-fraction/results/data/subject-2b.csv","legacy","#757575","low","3","Jazzy James","3.1.9","0","a","NA","space","space","l","a","NA","524","NA","75051","19073","19415","524","NA","2","legacy","1024","2","48000","-16","experiment","2","even","absent","142317","142316","NA","243672","28681","142299","246440","246957","28711","103786","122877","246957","247484","NA","246425","Fraction component detection task","78","48600","83","yes","1280"
"94.0476190476","94.0476190476","586.583333333","586.583333333","#808080","no","legacy","legacy","legacy","0","uniform","1","undefined","undefined","undefined","1","l","0","0","0","83","0","0","83","83","0","0","0","83","83","0","83","Fri Apr 27 08:33:25 2018","#757575","low","6","The main experiment item","yes","","experiment.osexp","/Users/tom/github/sft-fraction/procedure","no","mono","no","24","no","white","no","yes","800","legacy","83","83","0","/Users/tom/github/sft-fraction/results/data/subject-2b.csv","legacy","#757575","low","7","Jazzy James","3.1.9","0","l","NA","space","space","l","l","NA","673","NA","75051","19073","19415","673","NA","2","legacy","1024","2","48000","-16","experiment","2","even","present","142317","142316","NA","243672","28681","142299","247580","248096","28711","103786","122877","248096","248772","NA","247565","Fraction component detection task","79","49273","84","yes","1280"
"94.1176470588","94.1176470588","584.8","584.8","#808080","no","legacy","legacy","legacy","0","uniform","1","undefined","undefined","undefined","1","l","0","0","0","84","0","0","84","84","0","0","0","84","84","0","84","Fri Apr 27 08:33:25 2018","#000000","high","6","The main experiment item","yes","","experiment.osexp","/Users/tom/github/sft-fraction/procedure","no","mono","no","24","no","white","no","yes","800","legacy","84","84","0","/Users/tom/github/sft-fraction/results/data/subject-2b.csv","legacy","#000000","high","4","Jazzy James","3.1.9","0","l","NA","space","space","l","l","NA","435","NA","75051","19073","19415","435","NA","2","legacy","1024","2","48000","-16","experiment","2","even","present","142317","142316","NA","243672","28681","142299","248873","249389","28711","103786","122877","249390","249828","NA","248857","Fraction component detection task","80","49708","85","yes","1280"
"94.1860465116","94.1860465116","583.523255814","583.523255814","#808080","no","legacy","legacy","legacy","0","uniform","1","undefined","undefined","undefined","1","a","0","0","0","85","0","0","85","85","0","0","0","85","85","0","85","Fri Apr 27 08:33:25 2018","#757575","low","4","The main experiment item","yes","","experiment.osexp","/Users/tom/github/sft-fraction/procedure","no","mono","no","24","no","white","no","yes","800","legacy","85","85","0","/Users/tom/github/sft-fraction/results/data/subject-2b.csv","legacy","#000000","high","4","Jazzy James","3.1.9","0","a","NA","space","space","l","a","NA","475","NA","75051","19073","19415","475","NA","2","legacy","1024","2","48000","-16","experiment","2","even","absent","142317","142316","NA","243672","28681","142299","249934","250455","28711","103786","122877","250455","250933","NA","249914","Fraction component detection task","81","50183","86","yes","1280"
"94.2528735632","94.2528735632","587.413793103","587.413793103","#808080","no","legacy","legacy","legacy","0","uniform","1","undefined","undefined","undefined","1","l","0","0","0","86","0","0","86","86","0","0","0","86","86","0","86","Fri Apr 27 08:33:25 2018","#757575","low","6","The main experiment item","yes","","experiment.osexp","/Users/tom/github/sft-fraction/procedure","no","mono","no","24","no","white","no","yes","800","legacy","86","86","0","/Users/tom/github/sft-fraction/results/data/subject-2b.csv","legacy","#757575","low","8","Jazzy James","3.1.9","0","l","NA","space","space","l","l","NA","922","NA","75051","19073","19415","922","NA","2","legacy","1024","2","48000","-16","experiment","2","even","present","142317","142316","NA","243672","28681","142299","251040","251559","28711","103786","122877","251559","252484","NA","251017","Fraction component detection task","82","51105","87","yes","1280"
"94.3181818182","94.3181818182","589.363636364","589.363636364","#808080","no","legacy","legacy","legacy","0","uniform","1","undefined","undefined","undefined","1","l","0","0","0","87","0","0","87","87","0","0","0","87","87","0","87","Fri Apr 27 08:33:25 2018","#000000","high","8","The main experiment item","yes","","experiment.osexp","/Users/tom/github/sft-fraction/procedure","no","mono","no","24","no","white","no","yes","800","legacy","87","87","0","/Users/tom/github/sft-fraction/results/data/subject-2b.csv","legacy","#757575","low","4","Jazzy James","3.1.9","0","l","NA","space","space","l","l","NA","759","NA","75051","19073","19415","759","NA","2","legacy","1024","2","48000","-16","experiment","2","even","present","142317","142316","NA","243672","28681","142299","252581","253099","28711","103786","122877","253099","253860","NA","252565","Fraction component detection task","83","51864","88","yes","1280"
"94.3820224719","94.3820224719","589.112359551","589.112359551","#808080","no","legacy","legacy","legacy","0","uniform","1","undefined","undefined","undefined","1","a","0","0","0","88","0","0","88","88","0","0","0","88","88","0","88","Fri Apr 27 08:33:25 2018","#757575","low","3","The main experiment item","yes","","experiment.osexp","/Users/tom/github/sft-fraction/procedure","no","mono","no","24","no","white","no","yes","800","legacy","88","88","0","/Users/tom/github/sft-fraction/results/data/subject-2b.csv","legacy","#000000","high","3","Jazzy James","3.1.9","0","a","NA","space","space","l","a","NA","567","NA","75051","19073","19415","567","NA","2","legacy","1024","2","48000","-16","experiment","2","even","absent","142317","142316","NA","243672","28681","142299","253957","254474","28711","103786","122877","254474","255043","NA","253940","Fraction component detection task","84","52431","89","yes","1280"
"94.4444444444","94.4444444444","591.144444444","591.144444444","#808080","no","legacy","legacy","legacy","0","uniform","1","undefined","undefined","undefined","1","l","0","0","0","89","0","0","89","89","0","0","0","89","89","0","89","Fri Apr 27 08:33:25 2018","#757575","low","2","The main experiment item","yes","","experiment.osexp","/Users/tom/github/sft-fraction/procedure","no","mono","no","24","no","white","no","yes","800","legacy","89","89","0","/Users/tom/github/sft-fraction/results/data/subject-2b.csv","legacy","#757575","low","7","Jazzy James","3.1.9","0","l","NA","space","space","l","l","NA","772","NA","75051","19073","19415","772","NA","2","legacy","1024","2","48000","-16","experiment","2","even","present","142317","142316","NA","243672","28681","142299","255142","255662","28711","103786","122877","255662","256436","NA","255125","Fraction component detection task","85","53203","90","yes","1280"
"93.4065934066","93.4065934066","592.362637363","592.362637363","#808080","no","legacy","legacy","legacy","0","uniform","0","undefined","undefined","undefined","0","l","0","0","0","90","0","0","90","90","0","0","0","90","90","0","90","Fri Apr 27 08:33:25 2018","#757575","low","7","The main experiment item","yes","","experiment.osexp","/Users/tom/github/sft-fraction/procedure","no","mono","no","24","no","white","no","yes","800","legacy","90","90","0","/Users/tom/github/sft-fraction/results/data/subject-2b.csv","legacy","#000000","high","6","Jazzy James","3.1.9","0","a","NA","space","space","l","a","NA","702","NA","75051","19073","19415","702","NA","2","legacy","1024","2","48000","-16","experiment","2","even","present","142317","142316","NA","243672","28681","142299","256535","257052","28711","103786","122877","257052","257757","NA","256520","Fraction component detection task","85","53905","91","yes","1280"
"93.4782608696","93.4782608696","606.826086957","606.826086957","#808080","no","legacy","legacy","legacy","0","uniform","1","undefined","undefined","undefined","1","l","0","0","0","91","0","0","91","91","0","0","0","91","91","0","91","Fri Apr 27 08:33:25 2018","#000000","high","3","The main experiment item","yes","","experiment.osexp","/Users/tom/github/sft-fraction/procedure","no","mono","no","24","no","white","no","yes","800","legacy","91","91","0","/Users/tom/github/sft-fraction/results/data/subject-2b.csv","legacy","#000000","high","8","Jazzy James","3.1.9","0","l","NA","space","space","l","l","NA","1923","NA","75051","19073","19415","1923","NA","2","legacy","1024","2","48000","-16","experiment","2","even","present","142317","142316","NA","257776","28681","142299","258874","259391","28711","103786","122877","259391","261317","NA","258853","Fraction component detection task","86","55828","92","yes","1280"
"93.5483870968","93.5483870968","607.311827957","607.311827957","#808080","no","legacy","legacy","legacy","0","uniform","1","undefined","undefined","undefined","1","a","0","0","0","92","0","0","92","92","0","0","0","92","92","0","92","Fri Apr 27 08:33:25 2018","#757575","low","3","The main experiment item","yes","","experiment.osexp","/Users/tom/github/sft-fraction/procedure","no","mono","no","24","no","white","no","yes","800","legacy","92","92","0","/Users/tom/github/sft-fraction/results/data/subject-2b.csv","legacy","#757575","low","2","Jazzy James","3.1.9","0","a","NA","space","space","l","a","NA","652","NA","75051","19073","19415","652","NA","2","legacy","1024","2","48000","-16","experiment","2","even","absent","142317","142316","NA","257776","28681","142299","261408","261926","28711","103786","122877","261926","262581","NA","261393","Fraction component detection task","87","56480","93","yes","1280"
"93.6170212766","93.6170212766","606.893617021","606.893617021","#808080","no","legacy","legacy","legacy","0","uniform","1","undefined","undefined","undefined","1","a","0","0","0","93","0","0","93","93","0","0","0","93","93","0","93","Fri Apr 27 08:33:25 2018","#000000","high","3","The main experiment item","yes","","experiment.osexp","/Users/tom/github/sft-fraction/procedure","no","mono","no","24","no","white","no","yes","800","legacy","93","93","0","/Users/tom/github/sft-fraction/results/data/subject-2b.csv","legacy","#757575","low","4","Jazzy James","3.1.9","0","a","NA","space","space","l","a","NA","568","NA","75051","19073","19415","568","NA","2","legacy","1024","2","48000","-16","experiment","2","even","absent","142317","142316","NA","257776","28681","142299","262677","263194","28711","103786","122877","263194","263765","NA","262661","Fraction component detection task","88","57048","94","yes","1280"
"93.6842105263","93.6842105263","605.810526316","605.810526316","#808080","no","legacy","legacy","legacy","0","uniform","1","undefined","undefined","undefined","1","a","0","0","0","94","0","0","94","94","0","0","0","94","94","0","94","Fri Apr 27 08:33:25 2018","#757575","low","2","The main experiment item","yes","","experiment.osexp","/Users/tom/github/sft-fraction/procedure","no","mono","no","24","no","white","no","yes","800","legacy","94","94","0","/Users/tom/github/sft-fraction/results/data/subject-2b.csv","legacy","#757575","low","4","Jazzy James","3.1.9","0","a","NA","space","space","l","a","NA","504","NA","75051","19073","19415","504","NA","2","legacy","1024","2","48000","-16","experiment","2","even","absent","142317","142316","NA","257776","28681","142299","263861","264378","28711","103786","122877","264378","264885","NA","263845","Fraction component detection task","89","57552","95","yes","1280"
"93.75","93.75","604.729166667","604.729166667","#808080","no","legacy","legacy","legacy","0","uniform","1","undefined","undefined","undefined","1","l","0","0","0","95","0","0","95","95","0","0","0","95","95","0","95","Fri Apr 27 08:33:25 2018","#000000","high","6","The main experiment item","yes","","experiment.osexp","/Users/tom/github/sft-fraction/procedure","no","mono","no","24","no","white","no","yes","800","legacy","95","95","0","/Users/tom/github/sft-fraction/results/data/subject-2b.csv","legacy","#757575","low","7","Jazzy James","3.1.9","0","l","NA","space","space","l","l","NA","502","NA","75051","19073","19415","502","NA","2","legacy","1024","2","48000","-16","experiment","2","even","present","142317","142316","NA","257776","28681","142299","264982","265498","28711","103786","122877","265499","266004","NA","264965","Fraction component detection task","90","58054","96","yes","1280"
"92.7835051546","92.7835051546","603.701030928","603.701030928","#808080","no","legacy","legacy","legacy","0","uniform","0","undefined","undefined","undefined","0","l","0","0","0","96","0","0","96","96","0","0","0","96","96","0","96","Fri Apr 27 08:33:25 2018","#757575","low","3","The main experiment item","yes","","experiment.osexp","/Users/tom/github/sft-fraction/procedure","no","mono","no","24","no","white","no","yes","800","legacy","96","96","0","/Users/tom/github/sft-fraction/results/data/subject-2b.csv","legacy","#757575","low","8","Jazzy James","3.1.9","0","a","NA","space","space","l","a","NA","505","NA","75051","19073","19415","505","NA","2","legacy","1024","2","48000","-16","experiment","2","even","present","142317","142316","NA","257776","28681","142299","266105","266623","28711","103786","122877","266624","267132","NA","266088","Fraction component detection task","90","58559","97","yes","1280"
"92.8571428571","92.8571428571","607.489795918","607.489795918","#808080","no","legacy","legacy","legacy","0","uniform","1","undefined","undefined","undefined","1","a","0","0","0","97","0","0","97","97","0","0","0","97","97","0","97","Fri Apr 27 08:33:25 2018","#757575","low","2","The main experiment item","yes","","experiment.osexp","/Users/tom/github/sft-fraction/procedure","no","mono","no","24","no","white","no","yes","800","legacy","97","97","0","/Users/tom/github/sft-fraction/results/data/subject-2b.csv","legacy","#757575","low","2","Jazzy James","3.1.9","0","a","NA","space","space","l","a","NA","975","NA","75051","19073","19415","975","NA","2","legacy","1024","2","48000","-16","experiment","2","even","absent","142317","142316","NA","267153","28681","142299","268251","268771","28711","103786","122877","268771","269750","NA","268233","Fraction component detection task","91","59534","98","yes","1280"
"92.9292929293","92.9292929293","607.434343434","607.434343434","#808080","no","legacy","legacy","legacy","0","uniform","1","undefined","undefined","undefined","1","a","0","0","0","98","0","0","98","98","0","0","0","98","98","0","98","Fri Apr 27 08:33:25 2018","#757575","low","4","The main experiment item","yes","","experiment.osexp","/Users/tom/github/sft-fraction/procedure","no","mono","no","24","no","white","no","yes","800","legacy","98","98","0","/Users/tom/github/sft-fraction/results/data/subject-2b.csv","legacy","#000000","high","3","Jazzy James","3.1.9","0","a","NA","space","space","l","a","NA","602","NA","75051","19073","19415","602","NA","2","legacy","1024","2","48000","-16","experiment","2","even","absent","142317","142316","NA","267153","28681","142299","269852","270368","28711","103786","122877","270368","270973","NA","269836","Fraction component detection task","92","60136","99","yes","1280"
"93","93","606.98","606.98","#808080","no","legacy","legacy","legacy","0","uniform","1","undefined","undefined","undefined","1","a","0","0","0","99","0","0","99","99","0","0","0","99","99","0","99","Fri Apr 27 08:33:25 2018","#000000","high","3","The main experiment item","yes","","experiment.osexp","/Users/tom/github/sft-fraction/procedure","no","mono","no","24","no","white","no","yes","800","legacy","99","99","0","/Users/tom/github/sft-fraction/results/data/subject-2b.csv","legacy","#000000","high","3","Jazzy James","3.1.9","0","a","NA","space","space","l","a","NA","562","NA","75051","19073","19415","562","NA","2","legacy","1024","2","48000","-16","experiment","2","even","absent","142317","142316","NA","267153","28681","142299","271075","271591","28711","103786","122877","271592","272157","NA","271059","Fraction component detection task","93","60698","100","yes","1280"
"93.0693069307","93.0693069307","606.683168317","606.683168317","#808080","no","legacy","legacy","legacy","0","uniform","1","undefined","undefined","undefined","1","a","0","0","0","100","0","0","100","100","0","0","0","100","100","0","100","Fri Apr 27 08:33:25 2018","#757575","low","2","The main experiment item","yes","","experiment.osexp","/Users/tom/github/sft-fraction/procedure","no","mono","no","24","no","white","no","yes","800","legacy","100","100","0","/Users/tom/github/sft-fraction/results/data/subject-2b.csv","legacy","#000000","high","2","Jazzy James","3.1.9","0","a","NA","space","space","l","a","NA","577","NA","75051","19073","19415","577","NA","2","legacy","1024","2","48000","-16","experiment","2","even","absent","142317","142316","NA","267153","28681","142299","272257","272778","28711","103786","122877","272778","273357","NA","272240","Fraction component detection task","94","61275","101","yes","1280"
"93.137254902","93.137254902","607.617647059","607.617647059","#808080","no","legacy","legacy","legacy","0","uniform","1","undefined","undefined","undefined","1","l","0","0","0","101","0","0","101","101","0","0","0","101","101","0","101","Fri Apr 27 08:33:25 2018","#757575","low","8","The main experiment item","yes","","experiment.osexp","/Users/tom/github/sft-fraction/procedure","no","mono","no","24","no","white","no","yes","800","legacy","101","101","0","/Users/tom/github/sft-fraction/results/data/subject-2b.csv","legacy","#000000","high","6","Jazzy James","3.1.9","0","l","NA","space","space","l","l","NA","702","NA","75051","19073","19415","702","NA","2","legacy","1024","2","48000","-16","experiment","2","even","present","142317","142316","NA","267153","28681","142299","273464","273981","28711","103786","122877","273981","274686","NA","273445","Fraction component detection task","95","61977","102","yes","1280"
"93.2038834951","93.2038834951","606.563106796","606.563106796","#808080","no","legacy","legacy","legacy","0","uniform","1","undefined","undefined","undefined","1","l","0","0","0","102","0","0","102","102","0","0","0","102","102","0","102","Fri Apr 27 08:33:25 2018","#000000","high","7","The main experiment item","yes","","experiment.osexp","/Users/tom/github/sft-fraction/procedure","no","mono","no","24","no","white","no","yes","800","legacy","102","102","0","/Users/tom/github/sft-fraction/results/data/subject-2b.csv","legacy","#757575","low","3","Jazzy James","3.1.9","0","l","NA","space","space","l","l","NA","499","NA","75051","19073","19415","499","NA","2","legacy","1024","2","48000","-16","experiment","2","even","present","142317","142316","NA","267153","28681","142299","274787","275303","28711","103786","122877","275304","275806","NA","274771","Fraction component detection task","96","62476","103","yes","1280"
"93.2692307692","93.2692307692","606.586538462","606.586538462","#808080","no","legacy","legacy","legacy","0","uniform","1","undefined","undefined","undefined","1","a","0","0","0","103","0","0","103","103","0","0","0","103","103","0","103","Fri Apr 27 08:33:25 2018","#000000","high","2","The main experiment item","yes","","experiment.osexp","/Users/tom/github/sft-fraction/procedure","no","mono","no","24","no","white","no","yes","800","legacy","103","103","0","/Users/tom/github/sft-fraction/results/data/subject-2b.csv","legacy","#000000","high","4","Jazzy James","3.1.9","0","a","NA","space","space","l","a","NA","609","NA","75051","19073","19415","609","NA","2","legacy","1024","2","48000","-16","experiment","2","even","absent","142317","142316","NA","267153","28681","142299","275905","276424","28711","103786","122877","276425","277038","NA","275886","Fraction component detection task","97","63085","104","yes","1280"
"93.3333333333","93.3333333333","607.885714286","607.885714286","#808080","no","legacy","legacy","legacy","0","uniform","1","undefined","undefined","undefined","1","a","0","0","0","104","0","0","104","104","0","0","0","104","104","0","104","Fri Apr 27 08:33:25 2018","#000000","high","3","The main experiment item","yes","","experiment.osexp","/Users/tom/github/sft-fraction/procedure","no","mono","no","24","no","white","no","yes","800","legacy","104","104","0","/Users/tom/github/sft-fraction/results/data/subject-2b.csv","legacy","#000000","high","2","Jazzy James","3.1.9","0","a","NA","space","space","l","a","NA","743","NA","75051","19073","19415","743","NA","2","legacy","1024","2","48000","-16","experiment","2","even","absent","142317","142316","NA","267153","28681","142299","277145","277668","28711","103786","122877","277668","278414","NA","277124","Fraction component detection task","98","63828","105","yes","1280"
"93.3962264151","93.3962264151","607.41509434","607.41509434","#808080","no","legacy","legacy","legacy","0","uniform","1","undefined","undefined","undefined","1","l","0","0","0","105","0","0","105","105","0","0","0","105","105","0","105","Fri Apr 27 08:33:25 2018","#757575","low","4","The main experiment item","yes","","experiment.osexp","/Users/tom/github/sft-fraction/procedure","no","mono","no","24","no","white","no","yes","800","legacy","105","105","0","/Users/tom/github/sft-fraction/results/data/subject-2b.csv","legacy","#000000","high","7","Jazzy James","3.1.9","0","l","NA","space","space","l","l","NA","558","NA","75051","19073","19415","558","NA","2","legacy","1024","2","48000","-16","experiment","2","even","present","142317","142316","NA","267153","28681","142299","278512","279029","28711","103786","122877","279029","279590","NA","278493","Fraction component detection task","99","64386","106","yes","1280"
"93.4579439252","93.4579439252","605.831775701","605.831775701","#808080","no","legacy","legacy","legacy","0","uniform","1","undefined","undefined","undefined","1","l","0","0","0","106","0","0","106","106","0","0","0","106","106","0","106","Fri Apr 27 08:33:25 2018","#757575","low","3","The main experiment item","yes","","experiment.osexp","/Users/tom/github/sft-fraction/procedure","no","mono","no","24","no","white","no","yes","800","legacy","106","106","0","/Users/tom/github/sft-fraction/results/data/subject-2b.csv","legacy","#757575","low","7","Jazzy James","3.1.9","0","l","NA","space","space","l","l","NA","438","NA","75051","19073","19415","438","NA","2","legacy","1024","2","48000","-16","experiment","2","even","present","142317","142316","NA","267153","28681","142299","279688","280204","28711","103786","122877","280205","280648","NA","279668","Fraction component detection task","100","64824","107","yes","1280"
