"acc","accuracy","average_response_time","avg_rt","background","bidi","canvas_backend","clock_backend","color_backend","compensation","coordinates","correct","correct_instructions1","correct_instructions2","correct_instructions3","correct_keyboard_response","correct_response","count_block_loop","count_block_sequence","count_end_of_experiment","count_error","count_experiment","count_experimental_loop","count_fixation_dot","count_fraction","count_instructions1","count_instructions2","count_instructions3","count_keyboard_response","count_logger","count_rest","count_trial_sequence","datetime","denomColor","denomSalience","denominator","description","disable_garbage_collection","empty_column","experiment_file","experiment_path","font_bold","font_family","font_italic","font_size","font_underline","foreground","form_clicks","fullscreen","height","keyboard_backend","live_row","live_row_block_loop","live_row_experimental_loop","logfile","mouse_backend","numColor","numSalience","numerator","opensesame_codename","opensesame_version","repeat_cycle","response","response_end_of_experiment","response_instructions1","response_instructions2","response_instructions3","response_keyboard_response","response_rest","response_time","response_time_end_of_experiment","response_time_instructions1","response_time_instructions2","response_time_instructions3","response_time_keyboard_response","response_time_rest","round_decimals","sampler_backend","sound_buf_size","sound_channels","sound_freq","sound_sample_size","start","subject_nr","subject_parity","target","time_block_loop","time_block_sequence","time_end_of_experiment","time_error","time_experiment","time_experimental_loop","time_fixation_dot","time_fraction","time_instructions1","time_instructions2","time_instructions3","time_keyboard_response","time_logger","time_rest","time_trial_sequence","title","total_correct","total_response_time","total_responses","uniform_coordinates","width"
"100","100","2819","2819","#808080","no","legacy","legacy","legacy","0","uniform","1","undefined","undefined","undefined","1","a","0","0","0","0","0","0","0","0","0","0","0","0","0","0","0","Thu Apr 26 09:53:39 2018","#757575","low","3","The main experiment item","yes","","experiment.osexp","/Users/tom/github/sft-fraction/procedure","no","mono","no","24","no","white","no","yes","800","legacy","0","0","0","/Users/tom/github/sft-fraction/results/data/subject-4a.csv","legacy","#000000","high","2","Jazzy James","3.1.9","0","a","NA","space","space","space","a","NA","2819","NA","101826","10008","16159","2819","NA","2","legacy","1024","2","48000","-16","experiment","4","even","absent","129358","129358","NA","NA","1288","129342","129406","129923","1313","103156","113181","129923","132743","NA","129390","Fraction component detection task","1","2819","1","yes","1280"
"100","100","2229.5","2229.5","#808080","no","legacy","legacy","legacy","0","uniform","1","undefined","undefined","undefined","1","l","0","0","0","1","0","0","1","1","0","0","0","1","1","0","1","Thu Apr 26 09:53:39 2018","#000000","high","7","The main experiment item","yes","","experiment.osexp","/Users/tom/github/sft-fraction/procedure","no","mono","no","24","no","white","no","yes","800","legacy","1","1","0","/Users/tom/github/sft-fraction/results/data/subject-4a.csv","legacy","#757575","low","3","Jazzy James","3.1.9","0","l","NA","space","space","space","l","NA","1640","NA","101826","10008","16159","1640","NA","2","legacy","1024","2","48000","-16","experiment","4","even","present","129358","129358","NA","NA","1288","129342","132834","133350","1313","103156","113181","133350","134996","NA","132819","Fraction component detection task","2","4459","2","yes","1280"
"100","100","1852.33333333","1852.33333333","#808080","no","legacy","legacy","legacy","0","uniform","1","undefined","undefined","undefined","1","l","0","0","0","2","0","0","2","2","0","0","0","2","2","0","2","Thu Apr 26 09:53:39 2018","#757575","low","8","The main experiment item","yes","","experiment.osexp","/Users/tom/github/sft-fraction/procedure","no","mono","no","24","no","white","no","yes","800","legacy","2","2","0","/Users/tom/github/sft-fraction/results/data/subject-4a.csv","legacy","#000000","high","2","Jazzy James","3.1.9","0","l","NA","space","space","space","l","NA","1098","NA","101826","10008","16159","1098","NA","2","legacy","1024","2","48000","-16","experiment","4","even","present","129358","129358","NA","NA","1288","129342","135078","135595","1313","103156","113181","135596","136696","NA","135062","Fraction component detection task","3","5557","3","yes","1280"
"100","100","1567.5","1567.5","#808080","no","legacy","legacy","legacy","0","uniform","1","undefined","undefined","undefined","1","l","0","0","0","3","0","0","3","3","0","0","0","3","3","0","3","Thu Apr 26 09:53:39 2018","#000000","high","7","The main experiment item","yes","","experiment.osexp","/Users/tom/github/sft-fraction/procedure","no","mono","no","24","no","white","no","yes","800","legacy","3","3","0","/Users/tom/github/sft-fraction/results/data/subject-4a.csv","legacy","#757575","low","6","Jazzy James","3.1.9","0","l","NA","space","space","space","l","NA","713","NA","101826","10008","16159","713","NA","2","legacy","1024","2","48000","-16","experiment","4","even","present","129358","129358","NA","NA","1288","129342","136781","137300","1313","103156","113181","137300","138014","NA","136764","Fraction component detection task","4","6270","4","yes","1280"
"100","100","1445.6","1445.6","#808080","no","legacy","legacy","legacy","0","uniform","1","undefined","undefined","undefined","1","l","0","0","0","4","0","0","4","4","0","0","0","4","4","0","4","Thu Apr 26 09:53:39 2018","#000000","high","2","The main experiment item","yes","","experiment.osexp","/Users/tom/github/sft-fraction/procedure","no","mono","no","24","no","white","no","yes","800","legacy","4","4","0","/Users/tom/github/sft-fraction/results/data/subject-4a.csv","legacy","#757575","low","7","Jazzy James","3.1.9","0","l","NA","space","space","space","l","NA","958","NA","101826","10008","16159","958","NA","2","legacy","1024","2","48000","-16","experiment","4","even","present","129358","129358","NA","NA","1288","129342","138101","138624","1313","103156","113181","138624","139583","NA","138081","Fraction component detection task","5","7228","5","yes","1280"
"100","100","1311","1311","#808080","no","legacy","legacy","legacy","0","uniform","1","undefined","undefined","undefined","1","l","0","0","0","5","0","0","5","5","0","0","0","5","5","0","5","Thu Apr 26 09:53:39 2018","#000000","high","8","The main experiment item","yes","","experiment.osexp","/Users/tom/github/sft-fraction/procedure","no","mono","no","24","no","white","no","yes","800","legacy","5","5","0","/Users/tom/github/sft-fraction/results/data/subject-4a.csv","legacy","#757575","low","2","Jazzy James","3.1.9","0","l","NA","space","space","space","l","NA","638","NA","101826","10008","16159","638","NA","2","legacy","1024","2","48000","-16","experiment","4","even","present","129358","129358","NA","NA","1288","129342","139667","140184","1313","103156","113181","140184","140824","NA","139650","Fraction component detection task","6","7866","6","yes","1280"
"100","100","1243.71428571","1243.71428571","#808080","no","legacy","legacy","legacy","0","uniform","1","undefined","undefined","undefined","1","l","0","0","0","6","0","0","6","6","0","0","0","6","6","0","6","Thu Apr 26 09:53:39 2018","#000000","high","4","The main experiment item","yes","","experiment.osexp","/Users/tom/github/sft-fraction/procedure","no","mono","no","24","no","white","no","yes","800","legacy","6","6","0","/Users/tom/github/sft-fraction/results/data/subject-4a.csv","legacy","#000000","high","6","Jazzy James","3.1.9","0","l","NA","space","space","space","l","NA","840","NA","101826","10008","16159","840","NA","2","legacy","1024","2","48000","-16","experiment","4","even","present","129358","129358","NA","NA","1288","129342","140904","141421","1313","103156","113181","141421","142263","NA","140888","Fraction component detection task","7","8706","7","yes","1280"
"100","100","1194","1194","#808080","no","legacy","legacy","legacy","0","uniform","1","undefined","undefined","undefined","1","l","0","0","0","7","0","0","7","7","0","0","0","7","7","0","7","Thu Apr 26 09:53:39 2018","#000000","high","8","The main experiment item","yes","","experiment.osexp","/Users/tom/github/sft-fraction/procedure","no","mono","no","24","no","white","no","yes","800","legacy","7","7","0","/Users/tom/github/sft-fraction/results/data/subject-4a.csv","legacy","#757575","low","4","Jazzy James","3.1.9","0","l","NA","space","space","space","l","NA","846","NA","101826","10008","16159","846","NA","2","legacy","1024","2","48000","-16","experiment","4","even","present","129358","129358","NA","NA","1288","129342","142343","142863","1313","103156","113181","142864","143712","NA","142328","Fraction component detection task","8","9552","8","yes","1280"
"100","100","1167","1167","#808080","no","legacy","legacy","legacy","0","uniform","1","undefined","undefined","undefined","1","a","0","0","0","8","0","0","8","8","0","0","0","8","8","0","8","Thu Apr 26 09:53:39 2018","#000000","high","2","The main experiment item","yes","","experiment.osexp","/Users/tom/github/sft-fraction/procedure","no","mono","no","24","no","white","no","yes","800","legacy","8","8","0","/Users/tom/github/sft-fraction/results/data/subject-4a.csv","legacy","#757575","low","4","Jazzy James","3.1.9","0","a","NA","space","space","space","a","NA","951","NA","101826","10008","16159","951","NA","2","legacy","1024","2","48000","-16","experiment","4","even","absent","129358","129358","NA","NA","1288","129342","143802","144318","1313","103156","113181","144318","145271","NA","143786","Fraction component detection task","9","10503","9","yes","1280"
"100","100","1123.7","1123.7","#808080","no","legacy","legacy","legacy","0","uniform","1","undefined","undefined","undefined","1","a","0","0","0","9","0","0","9","9","0","0","0","9","9","0","9","Thu Apr 26 09:53:39 2018","#757575","low","3","The main experiment item","yes","","experiment.osexp","/Users/tom/github/sft-fraction/procedure","no","mono","no","24","no","white","no","yes","800","legacy","9","9","0","/Users/tom/github/sft-fraction/results/data/subject-4a.csv","legacy","#757575","low","4","Jazzy James","3.1.9","0","a","NA","space","space","space","a","NA","734","NA","101826","10008","16159","734","NA","2","legacy","1024","2","48000","-16","experiment","4","even","absent","129358","129358","NA","NA","1288","129342","145355","145872","1313","103156","113181","145872","146608","NA","145340","Fraction component detection task","10","11237","10","yes","1280"
"100","100","1095.18181818","1095.18181818","#808080","no","legacy","legacy","legacy","0","uniform","1","undefined","undefined","undefined","1","l","0","0","0","10","0","0","10","10","0","0","0","10","10","0","10","Thu Apr 26 09:53:39 2018","#757575","low","6","The main experiment item","yes","","experiment.osexp","/Users/tom/github/sft-fraction/procedure","no","mono","no","24","no","white","no","yes","800","legacy","10","10","0","/Users/tom/github/sft-fraction/results/data/subject-4a.csv","legacy","#757575","low","8","Jazzy James","3.1.9","0","l","NA","space","space","space","l","NA","810","NA","101826","10008","16159","810","NA","2","legacy","1024","2","48000","-16","experiment","4","even","present","129358","129358","NA","NA","1288","129342","146694","147211","1313","103156","113181","147211","148023","NA","146677","Fraction component detection task","11","12047","11","yes","1280"
"100","100","1085.16666667","1085.16666667","#808080","no","legacy","legacy","legacy","0","uniform","1","undefined","undefined","undefined","1","a","0","0","0","11","0","0","11","11","0","0","0","11","11","0","11","Thu Apr 26 09:53:39 2018","#757575","low","2","The main experiment item","yes","","experiment.osexp","/Users/tom/github/sft-fraction/procedure","no","mono","no","24","no","white","no","yes","800","legacy","11","11","0","/Users/tom/github/sft-fraction/results/data/subject-4a.csv","legacy","#000000","high","3","Jazzy James","3.1.9","0","a","NA","space","space","space","a","NA","975","NA","101826","10008","16159","975","NA","2","legacy","1024","2","48000","-16","experiment","4","even","absent","129358","129358","NA","NA","1288","129342","148106","148623","1313","103156","113181","148623","149600","NA","148091","Fraction component detection task","12","13022","12","yes","1280"
"100","100","1059.38461538","1059.38461538","#808080","no","legacy","legacy","legacy","0","uniform","1","undefined","undefined","undefined","1","l","0","0","0","12","0","0","12","12","0","0","0","12","12","0","12","Thu Apr 26 09:53:39 2018","#757575","low","7","The main experiment item","yes","","experiment.osexp","/Users/tom/github/sft-fraction/procedure","no","mono","no","24","no","white","no","yes","800","legacy","12","12","0","/Users/tom/github/sft-fraction/results/data/subject-4a.csv","legacy","#757575","low","7","Jazzy James","3.1.9","0","l","NA","space","space","space","l","NA","750","NA","101826","10008","16159","750","NA","2","legacy","1024","2","48000","-16","experiment","4","even","present","129358","129358","NA","NA","1288","129342","149683","150200","1313","103156","113181","150200","150952","NA","149668","Fraction component detection task","13","13772","13","yes","1280"
"100","100","1033.14285714","1033.14285714","#808080","no","legacy","legacy","legacy","0","uniform","1","undefined","undefined","undefined","1","l","0","0","0","13","0","0","13","13","0","0","0","13","13","0","13","Thu Apr 26 09:53:39 2018","#757575","low","8","The main experiment item","yes","","experiment.osexp","/Users/tom/github/sft-fraction/procedure","no","mono","no","24","no","white","no","yes","800","legacy","13","13","0","/Users/tom/github/sft-fraction/results/data/subject-4a.csv","legacy","#757575","low","6","Jazzy James","3.1.9","0","l","NA","space","space","space","l","NA","692","NA","101826","10008","16159","692","NA","2","legacy","1024","2","48000","-16","experiment","4","even","present","129358","129358","NA","NA","1288","129342","151036","151553","1313","103156","113181","151553","152247","NA","151016","Fraction component detection task","14","14464","14","yes","1280"
"100","100","1011.86666667","1011.86666667","#808080","no","legacy","legacy","legacy","0","uniform","1","undefined","undefined","undefined","1","a","0","0","0","14","0","0","14","14","0","0","0","14","14","0","14","Thu Apr 26 09:53:39 2018","#757575","low","4","The main experiment item","yes","","experiment.osexp","/Users/tom/github/sft-fraction/procedure","no","mono","no","24","no","white","no","yes","800","legacy","14","14","0","/Users/tom/github/sft-fraction/results/data/subject-4a.csv","legacy","#000000","high","4","Jazzy James","3.1.9","0","a","NA","space","space","space","a","NA","714","NA","101826","10008","16159","714","NA","2","legacy","1024","2","48000","-16","experiment","4","even","absent","129358","129358","NA","NA","1288","129342","152335","152853","1313","103156","113181","152853","153568","NA","152320","Fraction component detection task","15","15178","15","yes","1280"
"100","100","989.75","989.75","#808080","no","legacy","legacy","legacy","0","uniform","1","undefined","undefined","undefined","1","a","0","0","0","15","0","0","15","15","0","0","0","15","15","0","15","Thu Apr 26 09:53:39 2018","#757575","low","2","The main experiment item","yes","","experiment.osexp","/Users/tom/github/sft-fraction/procedure","no","mono","no","24","no","white","no","yes","800","legacy","15","15","0","/Users/tom/github/sft-fraction/results/data/subject-4a.csv","legacy","#757575","low","3","Jazzy James","3.1.9","0","a","NA","space","space","space","a","NA","658","NA","101826","10008","16159","658","NA","2","legacy","1024","2","48000","-16","experiment","4","even","absent","129358","129358","NA","NA","1288","129342","153664","154181","1313","103156","113181","154181","154840","NA","153642","Fraction component detection task","16","15836","16","yes","1280"
"100","100","978.529411765","978.529411765","#808080","no","legacy","legacy","legacy","0","uniform","1","undefined","undefined","undefined","1","a","0","0","0","16","0","0","16","16","0","0","0","16","16","0","16","Thu Apr 26 09:53:39 2018","#757575","low","4","The main experiment item","yes","","experiment.osexp","/Users/tom/github/sft-fraction/procedure","no","mono","no","24","no","white","no","yes","800","legacy","16","16","0","/Users/tom/github/sft-fraction/results/data/subject-4a.csv","legacy","#000000","high","4","Jazzy James","3.1.9","0","a","NA","space","space","space","a","NA","799","NA","101826","10008","16159","799","NA","2","legacy","1024","2","48000","-16","experiment","4","even","absent","129358","129358","NA","NA","1288","129342","154922","155439","1313","103156","113181","155439","156239","NA","154906","Fraction component detection task","17","16635","17","yes","1280"
"100","100","958.444444444","958.444444444","#808080","no","legacy","legacy","legacy","0","uniform","1","undefined","undefined","undefined","1","a","0","0","0","17","0","0","17","17","0","0","0","17","17","0","17","Thu Apr 26 09:53:39 2018","#000000","high","2","The main experiment item","yes","","experiment.osexp","/Users/tom/github/sft-fraction/procedure","no","mono","no","24","no","white","no","yes","800","legacy","17","17","0","/Users/tom/github/sft-fraction/results/data/subject-4a.csv","legacy","#757575","low","3","Jazzy James","3.1.9","0","a","NA","space","space","space","a","NA","617","NA","101826","10008","16159","617","NA","2","legacy","1024","2","48000","-16","experiment","4","even","absent","129358","129358","NA","NA","1288","129342","156326","156846","1313","103156","113181","156846","157464","NA","156306","Fraction component detection task","18","17252","18","yes","1280"
"100","100","947.789473684","947.789473684","#808080","no","legacy","legacy","legacy","0","uniform","1","undefined","undefined","undefined","1","a","0","0","0","18","0","0","18","18","0","0","0","18","18","0","18","Thu Apr 26 09:53:39 2018","#757575","low","3","The main experiment item","yes","","experiment.osexp","/Users/tom/github/sft-fraction/procedure","no","mono","no","24","no","white","no","yes","800","legacy","18","18","0","/Users/tom/github/sft-fraction/results/data/subject-4a.csv","legacy","#757575","low","4","Jazzy James","3.1.9","0","a","NA","space","space","space","a","NA","756","NA","101826","10008","16159","756","NA","2","legacy","1024","2","48000","-16","experiment","4","even","absent","129358","129358","NA","NA","1288","129342","157547","158067","1313","103156","113181","158067","158825","NA","157527","Fraction component detection task","19","18008","19","yes","1280"
"100","100","928.95","928.95","#808080","no","legacy","legacy","legacy","0","uniform","1","undefined","undefined","undefined","1","l","0","0","0","19","0","0","19","19","0","0","0","19","19","0","19","Thu Apr 26 09:53:39 2018","#757575","low","2","The main experiment item","yes","","experiment.osexp","/Users/tom/github/sft-fraction/procedure","no","mono","no","24","no","white","no","yes","800","legacy","19","19","0","/Users/tom/github/sft-fraction/results/data/subject-4a.csv","legacy","#000000","high","8","Jazzy James","3.1.9","0","l","NA","space","space","space","l","NA","571","NA","101826","10008","16159","571","NA","2","legacy","1024","2","48000","-16","experiment","4","even","present","129358","129358","NA","NA","1288","129342","158907","159428","1313","103156","113181","159428","160000","NA","158891","Fraction component detection task","20","18579","20","yes","1280"
"100","100","948.80952381","948.80952381","#808080","no","legacy","legacy","legacy","0","uniform","1","undefined","undefined","undefined","1","a","0","0","0","20","0","0","20","20","0","0","0","20","20","0","20","Thu Apr 26 09:53:39 2018","#000000","high","4","The main experiment item","yes","","experiment.osexp","/Users/tom/github/sft-fraction/procedure","no","mono","no","24","no","white","no","yes","800","legacy","20","20","0","/Users/tom/github/sft-fraction/results/data/subject-4a.csv","legacy","#757575","low","4","Jazzy James","3.1.9","0","a","NA","space","space","space","a","NA","1346","NA","101826","10008","16159","1346","NA","2","legacy","1024","2","48000","-16","experiment","4","even","absent","129358","129358","NA","NA","1288","129342","160083","160604","1313","103156","113181","160605","161953","NA","160068","Fraction component detection task","21","19925","21","yes","1280"
"100","100","930.454545455","930.454545455","#808080","no","legacy","legacy","legacy","0","uniform","1","undefined","undefined","undefined","1","a","0","0","0","21","0","0","21","21","0","0","0","21","21","0","21","Thu Apr 26 09:53:39 2018","#000000","high","2","The main experiment item","yes","","experiment.osexp","/Users/tom/github/sft-fraction/procedure","no","mono","no","24","no","white","no","yes","800","legacy","21","21","0","/Users/tom/github/sft-fraction/results/data/subject-4a.csv","legacy","#000000","high","2","Jazzy James","3.1.9","0","a","NA","space","space","space","a","NA","545","NA","101826","10008","16159","545","NA","2","legacy","1024","2","48000","-16","experiment","4","even","absent","129358","129358","NA","NA","1288","129342","162038","162557","1313","103156","113181","162557","163104","NA","162017","Fraction component detection task","22","20470","22","yes","1280"
"100","100","917.956521739","917.956521739","#808080","no","legacy","legacy","legacy","0","uniform","1","undefined","undefined","undefined","1","a","0","0","0","22","0","0","22","22","0","0","0","22","22","0","22","Thu Apr 26 09:53:39 2018","#000000","high","4","The main experiment item","yes","","experiment.osexp","/Users/tom/github/sft-fraction/procedure","no","mono","no","24","no","white","no","yes","800","legacy","22","22","0","/Users/tom/github/sft-fraction/results/data/subject-4a.csv","legacy","#757575","low","2","Jazzy James","3.1.9","0","a","NA","space","space","space","a","NA","643","NA","101826","10008","16159","643","NA","2","legacy","1024","2","48000","-16","experiment","4","even","absent","129358","129358","NA","NA","1288","129342","163190","163706","1313","103156","113181","163707","164352","NA","163169","Fraction component detection task","23","21113","23","yes","1280"
"100","100","903.375","903.375","#808080","no","legacy","legacy","legacy","0","uniform","1","undefined","undefined","undefined","1","l","0","0","0","23","0","0","23","23","0","0","0","23","23","0","23","Thu Apr 26 09:53:39 2018","#757575","low","2","The main experiment item","yes","","experiment.osexp","/Users/tom/github/sft-fraction/procedure","no","mono","no","24","no","white","no","yes","800","legacy","23","23","0","/Users/tom/github/sft-fraction/results/data/subject-4a.csv","legacy","#757575","low","7","Jazzy James","3.1.9","0","l","NA","space","space","space","l","NA","568","NA","101826","10008","16159","568","NA","2","legacy","1024","2","48000","-16","experiment","4","even","present","129358","129358","NA","NA","1288","129342","164434","164951","1313","103156","113181","164951","165521","NA","164418","Fraction component detection task","24","21681","24","yes","1280"
"100","100","896.52","896.52","#808080","no","legacy","legacy","legacy","0","uniform","1","undefined","undefined","undefined","1","a","0","0","0","24","0","0","24","24","0","0","0","24","24","0","24","Thu Apr 26 09:53:39 2018","#757575","low","3","The main experiment item","yes","","experiment.osexp","/Users/tom/github/sft-fraction/procedure","no","mono","no","24","no","white","no","yes","800","legacy","24","24","0","/Users/tom/github/sft-fraction/results/data/subject-4a.csv","legacy","#000000","high","3","Jazzy James","3.1.9","0","a","NA","space","space","space","a","NA","732","NA","101826","10008","16159","732","NA","2","legacy","1024","2","48000","-16","experiment","4","even","absent","129358","129358","NA","NA","1288","129342","165601","166123","1313","103156","113181","166123","166857","NA","165585","Fraction component detection task","25","22413","25","yes","1280"
"100","100","885.153846154","885.153846154","#808080","no","legacy","legacy","legacy","0","uniform","1","undefined","undefined","undefined","1","a","0","0","0","25","0","0","25","25","0","0","0","25","25","0","25","Thu Apr 26 09:53:39 2018","#757575","low","3","The main experiment item","yes","","experiment.osexp","/Users/tom/github/sft-fraction/procedure","no","mono","no","24","no","white","no","yes","800","legacy","25","25","0","/Users/tom/github/sft-fraction/results/data/subject-4a.csv","legacy","#757575","low","2","Jazzy James","3.1.9","0","a","NA","space","space","space","a","NA","601","NA","101826","10008","16159","601","NA","2","legacy","1024","2","48000","-16","experiment","4","even","absent","129358","129358","NA","NA","1288","129342","166943","167461","1313","103156","113181","167461","168064","NA","166926","Fraction component detection task","26","23014","26","yes","1280"
"100","100","876.333333333","876.333333333","#808080","no","legacy","legacy","legacy","0","uniform","1","undefined","undefined","undefined","1","l","0","0","0","26","0","0","26","26","0","0","0","26","26","0","26","Thu Apr 26 09:53:39 2018","#757575","low","2","The main experiment item","yes","","experiment.osexp","/Users/tom/github/sft-fraction/procedure","no","mono","no","24","no","white","no","yes","800","legacy","26","26","0","/Users/tom/github/sft-fraction/results/data/subject-4a.csv","legacy","#000000","high","6","Jazzy James","3.1.9","0","l","NA","space","space","space","l","NA","647","NA","101826","10008","16159","647","NA","2","legacy","1024","2","48000","-16","experiment","4","even","present","129358","129358","NA","NA","1288","129342","168145","168662","1313","103156","113181","168663","169312","NA","168129","Fraction component detection task","27","23661","27","yes","1280"
"100","100","873.392857143","873.392857143","#808080","no","legacy","legacy","legacy","0","uniform","1","undefined","undefined","undefined","1","l","0","0","0","27","0","0","27","27","0","0","0","27","27","0","27","Thu Apr 26 09:53:39 2018","#000000","high","6","The main experiment item","yes","","experiment.osexp","/Users/tom/github/sft-fraction/procedure","no","mono","no","24","no","white","no","yes","800","legacy","27","27","0","/Users/tom/github/sft-fraction/results/data/subject-4a.csv","legacy","#757575","low","8","Jazzy James","3.1.9","0","l","NA","space","space","space","l","NA","794","NA","101826","10008","16159","794","NA","2","legacy","1024","2","48000","-16","experiment","4","even","present","129358","129358","NA","NA","1288","129342","169400","169918","1313","103156","113181","169918","170715","NA","169383","Fraction component detection task","28","24455","28","yes","1280"
"100","100","869","869","#808080","no","legacy","legacy","legacy","0","uniform","1","undefined","undefined","undefined","1","a","0","0","0","28","0","0","28","28","0","0","0","28","28","0","28","Thu Apr 26 09:53:39 2018","#000000","high","4","The main experiment item","yes","","experiment.osexp","/Users/tom/github/sft-fraction/procedure","no","mono","no","24","no","white","no","yes","800","legacy","28","28","0","/Users/tom/github/sft-fraction/results/data/subject-4a.csv","legacy","#000000","high","2","Jazzy James","3.1.9","0","a","NA","space","space","space","a","NA","746","NA","101826","10008","16159","746","NA","2","legacy","1024","2","48000","-16","experiment","4","even","absent","129358","129358","NA","NA","1288","129342","170799","171316","1313","103156","113181","171316","172064","NA","170784","Fraction component detection task","29","25201","29","yes","1280"
"100","100","864.633333333","864.633333333","#808080","no","legacy","legacy","legacy","0","uniform","1","undefined","undefined","undefined","1","l","0","0","0","29","0","0","29","29","0","0","0","29","29","0","29","Thu Apr 26 09:53:39 2018","#000000","high","3","The main experiment item","yes","","experiment.osexp","/Users/tom/github/sft-fraction/procedure","no","mono","no","24","no","white","no","yes","800","legacy","29","29","0","/Users/tom/github/sft-fraction/results/data/subject-4a.csv","legacy","#757575","low","6","Jazzy James","3.1.9","0","l","NA","space","space","space","l","NA","738","NA","101826","10008","16159","738","NA","2","legacy","1024","2","48000","-16","experiment","4","even","present","129358","129358","NA","NA","1288","129342","172144","172661","1313","103156","113181","172662","173403","NA","172128","Fraction component detection task","30","25939","30","yes","1280"
"100","100","866.290322581","866.290322581","#808080","no","legacy","legacy","legacy","0","uniform","1","undefined","undefined","undefined","1","a","0","0","0","30","0","0","30","30","0","0","0","30","30","0","30","Thu Apr 26 09:53:39 2018","#757575","low","4","The main experiment item","yes","","experiment.osexp","/Users/tom/github/sft-fraction/procedure","no","mono","no","24","no","white","no","yes","800","legacy","30","30","0","/Users/tom/github/sft-fraction/results/data/subject-4a.csv","legacy","#757575","low","2","Jazzy James","3.1.9","0","a","NA","space","space","space","a","NA","916","NA","101826","10008","16159","916","NA","2","legacy","1024","2","48000","-16","experiment","4","even","absent","129358","129358","NA","NA","1288","129342","173484","174004","1313","103156","113181","174004","174921","NA","173468","Fraction component detection task","31","26855","31","yes","1280"
"100","100","860.21875","860.21875","#808080","no","legacy","legacy","legacy","0","uniform","1","undefined","undefined","undefined","1","l","0","0","0","31","0","0","31","31","0","0","0","31","31","0","31","Thu Apr 26 09:53:39 2018","#757575","low","8","The main experiment item","yes","","experiment.osexp","/Users/tom/github/sft-fraction/procedure","no","mono","no","24","no","white","no","yes","800","legacy","31","31","0","/Users/tom/github/sft-fraction/results/data/subject-4a.csv","legacy","#757575","low","8","Jazzy James","3.1.9","0","l","NA","space","space","space","l","NA","672","NA","101826","10008","16159","672","NA","2","legacy","1024","2","48000","-16","experiment","4","even","present","129358","129358","NA","NA","1288","129342","175005","175527","1313","103156","113181","175527","176201","NA","174991","Fraction component detection task","32","27527","32","yes","1280"
"100","100","853.424242424","853.424242424","#808080","no","legacy","legacy","legacy","0","uniform","1","undefined","undefined","undefined","1","a","0","0","0","32","0","0","32","32","0","0","0","32","32","0","32","Thu Apr 26 09:53:39 2018","#757575","low","2","The main experiment item","yes","","experiment.osexp","/Users/tom/github/sft-fraction/procedure","no","mono","no","24","no","white","no","yes","800","legacy","32","32","0","/Users/tom/github/sft-fraction/results/data/subject-4a.csv","legacy","#757575","low","3","Jazzy James","3.1.9","0","a","NA","space","space","space","a","NA","636","NA","101826","10008","16159","636","NA","2","legacy","1024","2","48000","-16","experiment","4","even","absent","129358","129358","NA","NA","1288","129342","176283","176804","1313","103156","113181","176804","177442","NA","176265","Fraction component detection task","33","28163","33","yes","1280"
"100","100","848.176470588","848.176470588","#808080","no","legacy","legacy","legacy","0","uniform","1","undefined","undefined","undefined","1","l","0","0","0","33","0","0","33","33","0","0","0","33","33","0","33","Thu Apr 26 09:53:39 2018","#000000","high","8","The main experiment item","yes","","experiment.osexp","/Users/tom/github/sft-fraction/procedure","no","mono","no","24","no","white","no","yes","800","legacy","33","33","0","/Users/tom/github/sft-fraction/results/data/subject-4a.csv","legacy","#000000","high","6","Jazzy James","3.1.9","0","l","NA","space","space","space","l","NA","675","NA","101826","10008","16159","675","NA","2","legacy","1024","2","48000","-16","experiment","4","even","present","129358","129358","NA","NA","1288","129342","177528","178045","1313","103156","113181","178045","178722","NA","177507","Fraction component detection task","34","28838","34","yes","1280"
"100","100","852.428571429","852.428571429","#808080","no","legacy","legacy","legacy","0","uniform","1","undefined","undefined","undefined","1","a","0","0","0","34","0","0","34","34","0","0","0","34","34","0","34","Thu Apr 26 09:53:39 2018","#757575","low","2","The main experiment item","yes","","experiment.osexp","/Users/tom/github/sft-fraction/procedure","no","mono","no","24","no","white","no","yes","800","legacy","34","34","0","/Users/tom/github/sft-fraction/results/data/subject-4a.csv","legacy","#000000","high","4","Jazzy James","3.1.9","0","a","NA","space","space","space","a","NA","997","NA","101826","10008","16159","997","NA","2","legacy","1024","2","48000","-16","experiment","4","even","absent","129358","129358","NA","NA","1288","129342","178812","179329","1313","103156","113181","179330","180329","NA","178789","Fraction component detection task","35","29835","35","yes","1280"
"100","100","851.083333333","851.083333333","#808080","no","legacy","legacy","legacy","0","uniform","1","undefined","undefined","undefined","1","l","0","0","0","35","0","0","35","35","0","0","0","35","35","0","35","Thu Apr 26 09:53:39 2018","#757575","low","4","The main experiment item","yes","","experiment.osexp","/Users/tom/github/sft-fraction/procedure","no","mono","no","24","no","white","no","yes","800","legacy","35","35","0","/Users/tom/github/sft-fraction/results/data/subject-4a.csv","legacy","#000000","high","7","Jazzy James","3.1.9","0","l","NA","space","space","space","l","NA","804","NA","101826","10008","16159","804","NA","2","legacy","1024","2","48000","-16","experiment","4","even","present","129358","129358","NA","NA","1288","129342","180411","180931","1313","103156","113181","180932","181738","NA","180395","Fraction component detection task","36","30639","36","yes","1280"
"100","100","847","847","#808080","no","legacy","legacy","legacy","0","uniform","1","undefined","undefined","undefined","1","a","0","0","0","36","0","0","36","36","0","0","0","36","36","0","36","Thu Apr 26 09:53:39 2018","#000000","high","2","The main experiment item","yes","","experiment.osexp","/Users/tom/github/sft-fraction/procedure","no","mono","no","24","no","white","no","yes","800","legacy","36","36","0","/Users/tom/github/sft-fraction/results/data/subject-4a.csv","legacy","#000000","high","4","Jazzy James","3.1.9","0","a","NA","space","space","space","a","NA","700","NA","101826","10008","16159","700","NA","2","legacy","1024","2","48000","-16","experiment","4","even","absent","129358","129358","NA","NA","1288","129342","181823","182339","1313","103156","113181","182339","183041","NA","181802","Fraction component detection task","37","31339","37","yes","1280"
"100","100","845.657894737","845.657894737","#808080","no","legacy","legacy","legacy","0","uniform","1","undefined","undefined","undefined","1","a","0","0","0","37","0","0","37","37","0","0","0","37","37","0","37","Thu Apr 26 09:53:39 2018","#000000","high","4","The main experiment item","yes","","experiment.osexp","/Users/tom/github/sft-fraction/procedure","no","mono","no","24","no","white","no","yes","800","legacy","37","37","0","/Users/tom/github/sft-fraction/results/data/subject-4a.csv","legacy","#000000","high","4","Jazzy James","3.1.9","0","a","NA","space","space","space","a","NA","796","NA","101826","10008","16159","796","NA","2","legacy","1024","2","48000","-16","experiment","4","even","absent","129358","129358","NA","NA","1288","129342","183124","183644","1313","103156","113181","183644","184442","NA","183108","Fraction component detection task","38","32135","38","yes","1280"
"100","100","841.435897436","841.435897436","#808080","no","legacy","legacy","legacy","0","uniform","1","undefined","undefined","undefined","1","l","0","0","0","38","0","0","38","38","0","0","0","38","38","0","38","Thu Apr 26 09:53:39 2018","#757575","low","2","The main experiment item","yes","","experiment.osexp","/Users/tom/github/sft-fraction/procedure","no","mono","no","24","no","white","no","yes","800","legacy","38","38","0","/Users/tom/github/sft-fraction/results/data/subject-4a.csv","legacy","#757575","low","6","Jazzy James","3.1.9","0","l","NA","space","space","space","l","NA","681","NA","101826","10008","16159","681","NA","2","legacy","1024","2","48000","-16","experiment","4","even","present","129358","129358","NA","NA","1288","129342","184523","185039","1313","103156","113181","185039","185722","NA","184507","Fraction component detection task","39","32816","39","yes","1280"
"100","100","836.175","836.175","#808080","no","legacy","legacy","legacy","0","uniform","1","undefined","undefined","undefined","1","a","0","0","0","39","0","0","39","39","0","0","0","39","39","0","39","Thu Apr 26 09:53:39 2018","#757575","low","4","The main experiment item","yes","","experiment.osexp","/Users/tom/github/sft-fraction/procedure","no","mono","no","24","no","white","no","yes","800","legacy","39","39","0","/Users/tom/github/sft-fraction/results/data/subject-4a.csv","legacy","#757575","low","4","Jazzy James","3.1.9","0","a","NA","space","space","space","a","NA","631","NA","101826","10008","16159","631","NA","2","legacy","1024","2","48000","-16","experiment","4","even","absent","129358","129358","NA","NA","1288","129342","185805","186321","1313","103156","113181","186321","186954","NA","185788","Fraction component detection task","40","33447","40","yes","1280"
"100","100","838.317073171","838.317073171","#808080","no","legacy","legacy","legacy","0","uniform","1","undefined","undefined","undefined","1","l","0","0","0","40","0","0","40","40","0","0","0","40","40","0","40","Thu Apr 26 09:53:39 2018","#757575","low","3","The main experiment item","yes","","experiment.osexp","/Users/tom/github/sft-fraction/procedure","no","mono","no","24","no","white","no","yes","800","legacy","40","40","0","/Users/tom/github/sft-fraction/results/data/subject-4a.csv","legacy","#757575","low","6","Jazzy James","3.1.9","0","l","NA","space","space","space","l","NA","924","NA","101826","10008","16159","924","NA","2","legacy","1024","2","48000","-16","experiment","4","even","present","129358","129358","NA","NA","1288","129342","187031","187548","1313","103156","113181","187548","188474","NA","187015","Fraction component detection task","41","34371","41","yes","1280"
"100","100","836.69047619","836.69047619","#808080","no","legacy","legacy","legacy","0","uniform","1","undefined","undefined","undefined","1","a","0","0","0","41","0","0","41","41","0","0","0","41","41","0","41","Thu Apr 26 09:53:39 2018","#000000","high","4","The main experiment item","yes","","experiment.osexp","/Users/tom/github/sft-fraction/procedure","no","mono","no","24","no","white","no","yes","800","legacy","41","41","0","/Users/tom/github/sft-fraction/results/data/subject-4a.csv","legacy","#757575","low","2","Jazzy James","3.1.9","0","a","NA","space","space","space","a","NA","770","NA","101826","10008","16159","770","NA","2","legacy","1024","2","48000","-16","experiment","4","even","absent","129358","129358","NA","NA","1288","129342","188562","189078","1313","103156","113181","189078","189850","NA","188541","Fraction component detection task","42","35141","42","yes","1280"
"100","100","834.930232558","834.930232558","#808080","no","legacy","legacy","legacy","0","uniform","1","undefined","undefined","undefined","1","a","0","0","0","42","0","0","42","42","0","0","0","42","42","0","42","Thu Apr 26 09:53:39 2018","#000000","high","3","The main experiment item","yes","","experiment.osexp","/Users/tom/github/sft-fraction/procedure","no","mono","no","24","no","white","no","yes","800","legacy","42","42","0","/Users/tom/github/sft-fraction/results/data/subject-4a.csv","legacy","#000000","high","4","Jazzy James","3.1.9","0","a","NA","space","space","space","a","NA","761","NA","101826","10008","16159","761","NA","2","legacy","1024","2","48000","-16","experiment","4","even","absent","129358","129358","NA","NA","1288","129342","189936","190453","1313","103156","113181","190454","191217","NA","189915","Fraction component detection task","43","35902","43","yes","1280"
"100","100","832.522727273","832.522727273","#808080","no","legacy","legacy","legacy","0","uniform","1","undefined","undefined","undefined","1","l","0","0","0","43","0","0","43","43","0","0","0","43","43","0","43","Thu Apr 26 09:53:39 2018","#757575","low","7","The main experiment item","yes","","experiment.osexp","/Users/tom/github/sft-fraction/procedure","no","mono","no","24","no","white","no","yes","800","legacy","43","43","0","/Users/tom/github/sft-fraction/results/data/subject-4a.csv","legacy","#000000","high","3","Jazzy James","3.1.9","0","l","NA","space","space","space","l","NA","729","NA","101826","10008","16159","729","NA","2","legacy","1024","2","48000","-16","experiment","4","even","present","129358","129358","NA","NA","1288","129342","191298","191815","1313","103156","113181","191815","192546","NA","191283","Fraction component detection task","44","36631","44","yes","1280"
"100","100","831.355555556","831.355555556","#808080","no","legacy","legacy","legacy","0","uniform","1","undefined","undefined","undefined","1","a","0","0","0","44","0","0","44","44","0","0","0","44","44","0","44","Thu Apr 26 09:53:39 2018","#000000","high","4","The main experiment item","yes","","experiment.osexp","/Users/tom/github/sft-fraction/procedure","no","mono","no","24","no","white","no","yes","800","legacy","44","44","0","/Users/tom/github/sft-fraction/results/data/subject-4a.csv","legacy","#757575","low","4","Jazzy James","3.1.9","0","a","NA","space","space","space","a","NA","780","NA","101826","10008","16159","780","NA","2","legacy","1024","2","48000","-16","experiment","4","even","absent","129358","129358","NA","NA","1288","129342","192632","193148","1313","103156","113181","193148","193931","NA","192617","Fraction component detection task","45","37411","45","yes","1280"
"100","100","827.173913043","827.173913043","#808080","no","legacy","legacy","legacy","0","uniform","1","undefined","undefined","undefined","1","a","0","0","0","45","0","0","45","45","0","0","0","45","45","0","45","Thu Apr 26 09:53:39 2018","#757575","low","4","The main experiment item","yes","","experiment.osexp","/Users/tom/github/sft-fraction/procedure","no","mono","no","24","no","white","no","yes","800","legacy","45","45","0","/Users/tom/github/sft-fraction/results/data/subject-4a.csv","legacy","#000000","high","2","Jazzy James","3.1.9","0","a","NA","space","space","space","a","NA","639","NA","101826","10008","16159","639","NA","2","legacy","1024","2","48000","-16","experiment","4","even","absent","129358","129358","NA","NA","1288","129342","194011","194528","1313","103156","113181","194528","195170","NA","193997","Fraction component detection task","46","38050","46","yes","1280"
"100","100","823.957446809","823.957446809","#808080","no","legacy","legacy","legacy","0","uniform","1","undefined","undefined","undefined","1","a","0","0","0","46","0","0","46","46","0","0","0","46","46","0","46","Thu Apr 26 09:53:39 2018","#000000","high","4","The main experiment item","yes","","experiment.osexp","/Users/tom/github/sft-fraction/procedure","no","mono","no","24","no","white","no","yes","800","legacy","46","46","0","/Users/tom/github/sft-fraction/results/data/subject-4a.csv","legacy","#757575","low","3","Jazzy James","3.1.9","0","a","NA","space","space","space","a","NA","676","NA","101826","10008","16159","676","NA","2","legacy","1024","2","48000","-16","experiment","4","even","absent","129358","129358","NA","NA","1288","129342","195252","195772","1313","103156","113181","195772","196450","NA","195236","Fraction component detection task","47","38726","47","yes","1280"
"100","100","820.895833333","820.895833333","#808080","no","legacy","legacy","legacy","0","uniform","1","undefined","undefined","undefined","1","l","0","0","0","47","0","0","47","47","0","0","0","47","47","0","47","Thu Apr 26 09:53:39 2018","#000000","high","8","The main experiment item","yes","","experiment.osexp","/Users/tom/github/sft-fraction/procedure","no","mono","no","24","no","white","no","yes","800","legacy","47","47","0","/Users/tom/github/sft-fraction/results/data/subject-4a.csv","legacy","#757575","low","7","Jazzy James","3.1.9","0","l","NA","space","space","space","l","NA","677","NA","101826","10008","16159","677","NA","2","legacy","1024","2","48000","-16","experiment","4","even","present","129358","129358","NA","NA","1288","129342","196535","197052","1313","103156","113181","197052","197732","NA","196515","Fraction component detection task","48","39403","48","yes","1280"
"100","100","818.448979592","818.448979592","#808080","no","legacy","legacy","legacy","0","uniform","1","undefined","undefined","undefined","1","a","0","0","0","48","0","0","48","48","0","0","0","48","48","0","48","Thu Apr 26 09:53:39 2018","#757575","low","3","The main experiment item","yes","","experiment.osexp","/Users/tom/github/sft-fraction/procedure","no","mono","no","24","no","white","no","yes","800","legacy","48","48","0","/Users/tom/github/sft-fraction/results/data/subject-4a.csv","legacy","#757575","low","3","Jazzy James","3.1.9","0","a","NA","space","space","space","a","NA","701","NA","101826","10008","16159","701","NA","2","legacy","1024","2","48000","-16","experiment","4","even","absent","129358","129358","NA","NA","1288","129342","197813","198331","1313","103156","113181","198331","199034","NA","197797","Fraction component detection task","49","40104","49","yes","1280"
"100","100","818.14","818.14","#808080","no","legacy","legacy","legacy","0","uniform","1","undefined","undefined","undefined","1","a","0","0","0","49","0","0","49","49","0","0","0","49","49","0","49","Thu Apr 26 09:53:39 2018","#000000","high","2","The main experiment item","yes","","experiment.osexp","/Users/tom/github/sft-fraction/procedure","no","mono","no","24","no","white","no","yes","800","legacy","49","49","0","/Users/tom/github/sft-fraction/results/data/subject-4a.csv","legacy","#757575","low","4","Jazzy James","3.1.9","0","a","NA","space","space","space","a","NA","803","NA","101826","10008","16159","803","NA","2","legacy","1024","2","48000","-16","experiment","4","even","absent","129358","129358","NA","NA","1288","129342","199121","199637","1313","103156","113181","199638","200443","NA","199104","Fraction component detection task","50","40907","50","yes","1280"
"100","100","817.725490196","817.725490196","#808080","no","legacy","legacy","legacy","0","uniform","1","undefined","undefined","undefined","1","l","0","0","0","50","0","0","50","50","0","0","0","50","50","0","50","Thu Apr 26 09:53:39 2018","#757575","low","7","The main experiment item","yes","","experiment.osexp","/Users/tom/github/sft-fraction/procedure","no","mono","no","24","no","white","no","yes","800","legacy","50","50","0","/Users/tom/github/sft-fraction/results/data/subject-4a.csv","legacy","#757575","low","8","Jazzy James","3.1.9","0","l","NA","space","space","space","l","NA","797","NA","101826","10008","16159","797","NA","2","legacy","1024","2","48000","-16","experiment","4","even","present","129358","129358","NA","NA","1288","129342","200527","201043","1313","103156","113181","201044","201843","NA","200512","Fraction component detection task","51","41704","51","yes","1280"
"100","100","815.942307692","815.942307692","#808080","no","legacy","legacy","legacy","0","uniform","1","undefined","undefined","undefined","1","l","0","0","0","51","0","0","51","51","0","0","0","51","51","0","51","Thu Apr 26 09:53:39 2018","#000000","high","4","The main experiment item","yes","","experiment.osexp","/Users/tom/github/sft-fraction/procedure","no","mono","no","24","no","white","no","yes","800","legacy","51","51","0","/Users/tom/github/sft-fraction/results/data/subject-4a.csv","legacy","#757575","low","8","Jazzy James","3.1.9","0","l","NA","space","space","space","l","NA","725","NA","101826","10008","16159","725","NA","2","legacy","1024","2","48000","-16","experiment","4","even","present","129358","129358","NA","NA","1288","129342","201926","202442","1313","103156","113181","202443","203170","NA","201910","Fraction component detection task","52","42429","52","yes","1280"
"100","100","815.830188679","815.830188679","#808080","no","legacy","legacy","legacy","0","uniform","1","undefined","undefined","undefined","1","l","0","0","0","52","0","0","52","52","0","0","0","52","52","0","52","Thu Apr 26 09:53:39 2018","#000000","high","7","The main experiment item","yes","","experiment.osexp","/Users/tom/github/sft-fraction/procedure","no","mono","no","24","no","white","no","yes","800","legacy","52","52","0","/Users/tom/github/sft-fraction/results/data/subject-4a.csv","legacy","#000000","high","8","Jazzy James","3.1.9","0","l","NA","space","space","space","l","NA","810","NA","101826","10008","16159","810","NA","2","legacy","1024","2","48000","-16","experiment","4","even","present","129358","129358","NA","NA","1288","129342","203256","203775","1313","103156","113181","203775","204587","NA","203240","Fraction component detection task","53","43239","53","yes","1280"
"100","100","818.703703704","818.703703704","#808080","no","legacy","legacy","legacy","0","uniform","1","undefined","undefined","undefined","1","l","0","0","0","53","0","0","53","53","0","0","0","53","53","0","53","Thu Apr 26 09:53:39 2018","#757575","low","6","The main experiment item","yes","","experiment.osexp","/Users/tom/github/sft-fraction/procedure","no","mono","no","24","no","white","no","yes","800","legacy","53","53","0","/Users/tom/github/sft-fraction/results/data/subject-4a.csv","legacy","#000000","high","6","Jazzy James","3.1.9","0","l","NA","space","space","space","l","NA","971","NA","101826","10008","16159","971","NA","2","legacy","1024","2","48000","-16","experiment","4","even","present","129358","129358","NA","NA","1288","129342","204673","205189","1313","103156","113181","205189","206162","NA","204657","Fraction component detection task","54","44210","54","yes","1280"
"100","100","815.690909091","815.690909091","#808080","no","legacy","legacy","legacy","0","uniform","1","undefined","undefined","undefined","1","a","0","0","0","54","0","0","54","54","0","0","0","54","54","0","54","Thu Apr 26 09:53:39 2018","#000000","high","2","The main experiment item","yes","","experiment.osexp","/Users/tom/github/sft-fraction/procedure","no","mono","no","24","no","white","no","yes","800","legacy","54","54","0","/Users/tom/github/sft-fraction/results/data/subject-4a.csv","legacy","#000000","high","4","Jazzy James","3.1.9","0","a","NA","space","space","space","a","NA","653","NA","101826","10008","16159","653","NA","2","legacy","1024","2","48000","-16","experiment","4","even","absent","129358","129358","NA","NA","1288","129342","206252","206772","1313","103156","113181","206772","207427","NA","206232","Fraction component detection task","55","44863","55","yes","1280"
"100","100","813.25","813.25","#808080","no","legacy","legacy","legacy","0","uniform","1","undefined","undefined","undefined","1","a","0","0","0","55","0","0","55","55","0","0","0","55","55","0","55","Thu Apr 26 09:53:39 2018","#757575","low","2","The main experiment item","yes","","experiment.osexp","/Users/tom/github/sft-fraction/procedure","no","mono","no","24","no","white","no","yes","800","legacy","55","55","0","/Users/tom/github/sft-fraction/results/data/subject-4a.csv","legacy","#757575","low","3","Jazzy James","3.1.9","0","a","NA","space","space","space","a","NA","679","NA","101826","10008","16159","679","NA","2","legacy","1024","2","48000","-16","experiment","4","even","absent","129358","129358","NA","NA","1288","129342","207517","208034","1313","103156","113181","208034","208716","NA","207495","Fraction component detection task","56","45542","56","yes","1280"
"100","100","809.368421053","809.368421053","#808080","no","legacy","legacy","legacy","0","uniform","1","undefined","undefined","undefined","1","l","0","0","0","56","0","0","56","56","0","0","0","56","56","0","56","Thu Apr 26 09:53:39 2018","#757575","low","4","The main experiment item","yes","","experiment.osexp","/Users/tom/github/sft-fraction/procedure","no","mono","no","24","no","white","no","yes","800","legacy","56","56","0","/Users/tom/github/sft-fraction/results/data/subject-4a.csv","legacy","#000000","high","6","Jazzy James","3.1.9","0","l","NA","space","space","space","l","NA","592","NA","101826","10008","16159","592","NA","2","legacy","1024","2","48000","-16","experiment","4","even","present","129358","129358","NA","NA","1288","129342","208801","209321","1313","103156","113181","209321","209915","NA","208785","Fraction component detection task","57","46134","57","yes","1280"
"100","100","805.931034483","805.931034483","#808080","no","legacy","legacy","legacy","0","uniform","1","undefined","undefined","undefined","1","l","0","0","0","57","0","0","57","57","0","0","0","57","57","0","57","Thu Apr 26 09:53:39 2018","#000000","high","7","The main experiment item","yes","","experiment.osexp","/Users/tom/github/sft-fraction/procedure","no","mono","no","24","no","white","no","yes","800","legacy","57","57","0","/Users/tom/github/sft-fraction/results/data/subject-4a.csv","legacy","#000000","high","2","Jazzy James","3.1.9","0","l","NA","space","space","space","l","NA","610","NA","101826","10008","16159","610","NA","2","legacy","1024","2","48000","-16","experiment","4","even","present","129358","129358","NA","NA","1288","129342","210000","210518","1313","103156","113181","210518","211131","NA","209985","Fraction component detection task","58","46744","58","yes","1280"
"100","100","803.644067797","803.644067797","#808080","no","legacy","legacy","legacy","0","uniform","1","undefined","undefined","undefined","1","a","0","0","0","58","0","0","58","58","0","0","0","58","58","0","58","Thu Apr 26 09:53:39 2018","#757575","low","3","The main experiment item","yes","","experiment.osexp","/Users/tom/github/sft-fraction/procedure","no","mono","no","24","no","white","no","yes","800","legacy","58","58","0","/Users/tom/github/sft-fraction/results/data/subject-4a.csv","legacy","#000000","high","2","Jazzy James","3.1.9","0","a","NA","space","space","space","a","NA","671","NA","101826","10008","16159","671","NA","2","legacy","1024","2","48000","-16","experiment","4","even","absent","129358","129358","NA","NA","1288","129342","211213","211730","1313","103156","113181","211730","212404","NA","211197","Fraction component detection task","59","47415","59","yes","1280"
"100","100","802.416666667","802.416666667","#808080","no","legacy","legacy","legacy","0","uniform","1","undefined","undefined","undefined","1","l","0","0","0","59","0","0","59","59","0","0","0","59","59","0","59","Thu Apr 26 09:53:39 2018","#757575","low","6","The main experiment item","yes","","experiment.osexp","/Users/tom/github/sft-fraction/procedure","no","mono","no","24","no","white","no","yes","800","legacy","59","59","0","/Users/tom/github/sft-fraction/results/data/subject-4a.csv","legacy","#757575","low","6","Jazzy James","3.1.9","0","l","NA","space","space","space","l","NA","730","NA","101826","10008","16159","730","NA","2","legacy","1024","2","48000","-16","experiment","4","even","present","129358","129358","NA","NA","1288","129342","212487","213006","1313","103156","113181","213007","213740","NA","212466","Fraction component detection task","60","48145","60","yes","1280"
"100","100","800.836065574","800.836065574","#808080","no","legacy","legacy","legacy","0","uniform","1","undefined","undefined","undefined","1","a","0","0","0","60","0","0","60","60","0","0","0","60","60","0","60","Thu Apr 26 09:53:39 2018","#757575","low","2","The main experiment item","yes","","experiment.osexp","/Users/tom/github/sft-fraction/procedure","no","mono","no","24","no","white","no","yes","800","legacy","60","60","0","/Users/tom/github/sft-fraction/results/data/subject-4a.csv","legacy","#000000","high","4","Jazzy James","3.1.9","0","a","NA","space","space","space","a","NA","706","NA","101826","10008","16159","706","NA","2","legacy","1024","2","48000","-16","experiment","4","even","absent","129358","129358","NA","NA","1288","129342","213823","214342","1313","103156","113181","214342","215051","NA","213807","Fraction component detection task","61","48851","61","yes","1280"
"100","100","799.274193548","799.274193548","#808080","no","legacy","legacy","legacy","0","uniform","1","undefined","undefined","undefined","1","l","0","0","0","61","0","0","61","61","0","0","0","61","61","0","61","Thu Apr 26 09:53:39 2018","#757575","low","8","The main experiment item","yes","","experiment.osexp","/Users/tom/github/sft-fraction/procedure","no","mono","no","24","no","white","no","yes","800","legacy","61","61","0","/Users/tom/github/sft-fraction/results/data/subject-4a.csv","legacy","#757575","low","7","Jazzy James","3.1.9","0","l","NA","space","space","space","l","NA","704","NA","101826","10008","16159","704","NA","2","legacy","1024","2","48000","-16","experiment","4","even","present","129358","129358","NA","NA","1288","129342","215132","215649","1313","103156","113181","215649","216356","NA","215116","Fraction component detection task","62","49555","62","yes","1280"
"100","100","799.174603175","799.174603175","#808080","no","legacy","legacy","legacy","0","uniform","1","undefined","undefined","undefined","1","l","0","0","0","62","0","0","62","62","0","0","0","62","62","0","62","Thu Apr 26 09:53:39 2018","#757575","low","8","The main experiment item","yes","","experiment.osexp","/Users/tom/github/sft-fraction/procedure","no","mono","no","24","no","white","no","yes","800","legacy","62","62","0","/Users/tom/github/sft-fraction/results/data/subject-4a.csv","legacy","#000000","high","4","Jazzy James","3.1.9","0","l","NA","space","space","space","l","NA","793","NA","101826","10008","16159","793","NA","2","legacy","1024","2","48000","-16","experiment","4","even","present","129358","129358","NA","NA","1288","129342","216441","216960","1313","103156","113181","216960","217756","NA","216423","Fraction component detection task","63","50348","63","yes","1280"
"100","100","796.328125","796.328125","#808080","no","legacy","legacy","legacy","0","uniform","1","undefined","undefined","undefined","1","l","0","0","0","63","0","0","63","63","0","0","0","63","63","0","63","Thu Apr 26 09:53:39 2018","#757575","low","3","The main experiment item","yes","","experiment.osexp","/Users/tom/github/sft-fraction/procedure","no","mono","no","24","no","white","no","yes","800","legacy","63","63","0","/Users/tom/github/sft-fraction/results/data/subject-4a.csv","legacy","#000000","high","7","Jazzy James","3.1.9","0","l","NA","space","space","space","l","NA","617","NA","101826","10008","16159","617","NA","2","legacy","1024","2","48000","-16","experiment","4","even","present","129358","129358","NA","NA","1288","129342","217850","218369","1313","103156","113181","218369","218988","NA","217831","Fraction component detection task","64","50965","64","yes","1280"
"100","100","793.276923077","793.276923077","#808080","no","legacy","legacy","legacy","0","uniform","1","undefined","undefined","undefined","1","a","0","0","0","64","0","0","64","64","0","0","0","64","64","0","64","Thu Apr 26 09:53:39 2018","#757575","low","3","The main experiment item","yes","","experiment.osexp","/Users/tom/github/sft-fraction/procedure","no","mono","no","24","no","white","no","yes","800","legacy","64","64","0","/Users/tom/github/sft-fraction/results/data/subject-4a.csv","legacy","#757575","low","3","Jazzy James","3.1.9","0","a","NA","space","space","space","a","NA","598","NA","101826","10008","16159","598","NA","2","legacy","1024","2","48000","-16","experiment","4","even","absent","129358","129358","NA","NA","1288","129342","219075","219595","1313","103156","113181","219595","220196","NA","219055","Fraction component detection task","65","51563","65","yes","1280"
"100","100","789.196969697","789.196969697","#808080","no","legacy","legacy","legacy","0","uniform","1","undefined","undefined","undefined","1","a","0","0","0","65","0","0","65","65","0","0","0","65","65","0","65","Thu Apr 26 09:53:39 2018","#000000","high","3","The main experiment item","yes","","experiment.osexp","/Users/tom/github/sft-fraction/procedure","no","mono","no","24","no","white","no","yes","800","legacy","65","65","0","/Users/tom/github/sft-fraction/results/data/subject-4a.csv","legacy","#000000","high","2","Jazzy James","3.1.9","0","a","NA","space","space","space","a","NA","524","NA","101826","10008","16159","524","NA","2","legacy","1024","2","48000","-16","experiment","4","even","absent","129358","129358","NA","NA","1288","129342","220276","220796","1313","103156","113181","220797","221323","NA","220260","Fraction component detection task","66","52087","66","yes","1280"
"100","100","787.029850746","787.029850746","#808080","no","legacy","legacy","legacy","0","uniform","1","undefined","undefined","undefined","1","a","0","0","0","66","0","0","66","66","0","0","0","66","66","0","66","Thu Apr 26 09:53:39 2018","#757575","low","4","The main experiment item","yes","","experiment.osexp","/Users/tom/github/sft-fraction/procedure","no","mono","no","24","no","white","no","yes","800","legacy","66","66","0","/Users/tom/github/sft-fraction/results/data/subject-4a.csv","legacy","#757575","low","2","Jazzy James","3.1.9","0","a","NA","space","space","space","a","NA","644","NA","101826","10008","16159","644","NA","2","legacy","1024","2","48000","-16","experiment","4","even","absent","129358","129358","NA","NA","1288","129342","221417","221934","1313","103156","113181","221934","222580","NA","221399","Fraction component detection task","67","52731","67","yes","1280"
"100","100","784.705882353","784.705882353","#808080","no","legacy","legacy","legacy","0","uniform","1","undefined","undefined","undefined","1","a","0","0","0","67","0","0","67","67","0","0","0","67","67","0","67","Thu Apr 26 09:53:39 2018","#757575","low","3","The main experiment item","yes","","experiment.osexp","/Users/tom/github/sft-fraction/procedure","no","mono","no","24","no","white","no","yes","800","legacy","67","67","0","/Users/tom/github/sft-fraction/results/data/subject-4a.csv","legacy","#000000","high","4","Jazzy James","3.1.9","0","a","NA","space","space","space","a","NA","629","NA","101826","10008","16159","629","NA","2","legacy","1024","2","48000","-16","experiment","4","even","absent","129358","129358","NA","NA","1288","129342","222661","223181","1313","103156","113181","223181","223813","NA","222646","Fraction component detection task","68","53360","68","yes","1280"
"100","100","781.101449275","781.101449275","#808080","no","legacy","legacy","legacy","0","uniform","1","undefined","undefined","undefined","1","l","0","0","0","68","0","0","68","68","0","0","0","68","68","0","68","Thu Apr 26 09:53:39 2018","#000000","high","8","The main experiment item","yes","","experiment.osexp","/Users/tom/github/sft-fraction/procedure","no","mono","no","24","no","white","no","yes","800","legacy","68","68","0","/Users/tom/github/sft-fraction/results/data/subject-4a.csv","legacy","#757575","low","3","Jazzy James","3.1.9","0","l","NA","space","space","space","l","NA","536","NA","101826","10008","16159","536","NA","2","legacy","1024","2","48000","-16","experiment","4","even","present","129358","129358","NA","NA","1288","129342","223897","224417","1313","103156","113181","224418","224958","NA","223882","Fraction component detection task","69","53896","69","yes","1280"
"100","100","777.985714286","777.985714286","#808080","no","legacy","legacy","legacy","0","uniform","1","undefined","undefined","undefined","1","a","0","0","0","69","0","0","69","69","0","0","0","69","69","0","69","Thu Apr 26 09:53:39 2018","#757575","low","4","The main experiment item","yes","","experiment.osexp","/Users/tom/github/sft-fraction/procedure","no","mono","no","24","no","white","no","yes","800","legacy","69","69","0","/Users/tom/github/sft-fraction/results/data/subject-4a.csv","legacy","#000000","high","2","Jazzy James","3.1.9","0","a","NA","space","space","space","a","NA","563","NA","101826","10008","16159","563","NA","2","legacy","1024","2","48000","-16","experiment","4","even","absent","129358","129358","NA","NA","1288","129342","225046","225566","1313","103156","113181","225566","226131","NA","225028","Fraction component detection task","70","54459","70","yes","1280"
"100","100","774.23943662","774.23943662","#808080","no","legacy","legacy","legacy","0","uniform","1","undefined","undefined","undefined","1","a","0","0","0","70","0","0","70","70","0","0","0","70","70","0","70","Thu Apr 26 09:53:39 2018","#000000","high","4","The main experiment item","yes","","experiment.osexp","/Users/tom/github/sft-fraction/procedure","no","mono","no","24","no","white","no","yes","800","legacy","70","70","0","/Users/tom/github/sft-fraction/results/data/subject-4a.csv","legacy","#757575","low","2","Jazzy James","3.1.9","0","a","NA","space","space","space","a","NA","512","NA","101826","10008","16159","512","NA","2","legacy","1024","2","48000","-16","experiment","4","even","absent","129358","129358","NA","NA","1288","129342","226213","226729","1313","103156","113181","226729","227243","NA","226197","Fraction component detection task","71","54971","71","yes","1280"
"100","100","771.722222222","771.722222222","#808080","no","legacy","legacy","legacy","0","uniform","1","undefined","undefined","undefined","1","a","0","0","0","71","0","0","71","71","0","0","0","71","71","0","71","Thu Apr 26 09:53:39 2018","#757575","low","3","The main experiment item","yes","","experiment.osexp","/Users/tom/github/sft-fraction/procedure","no","mono","no","24","no","white","no","yes","800","legacy","71","71","0","/Users/tom/github/sft-fraction/results/data/subject-4a.csv","legacy","#757575","low","4","Jazzy James","3.1.9","0","a","NA","space","space","space","a","NA","593","NA","101826","10008","16159","593","NA","2","legacy","1024","2","48000","-16","experiment","4","even","absent","129358","129358","NA","NA","1288","129342","227330","227849","1313","103156","113181","227849","228444","NA","227314","Fraction component detection task","72","55564","72","yes","1280"
"100","100","770.794520548","770.794520548","#808080","no","legacy","legacy","legacy","0","uniform","1","undefined","undefined","undefined","1","l","0","0","0","72","0","0","72","72","0","0","0","72","72","0","72","Thu Apr 26 09:53:39 2018","#757575","low","7","The main experiment item","yes","","experiment.osexp","/Users/tom/github/sft-fraction/procedure","no","mono","no","24","no","white","no","yes","800","legacy","72","72","0","/Users/tom/github/sft-fraction/results/data/subject-4a.csv","legacy","#757575","low","4","Jazzy James","3.1.9","0","l","NA","space","space","space","l","NA","704","NA","101826","10008","16159","704","NA","2","legacy","1024","2","48000","-16","experiment","4","even","present","129358","129358","NA","NA","1288","129342","228526","229042","1313","103156","113181","229042","229749","NA","228510","Fraction component detection task","73","56268","73","yes","1280"
"100","100","766.837837838","766.837837838","#808080","no","legacy","legacy","legacy","0","uniform","1","undefined","undefined","undefined","1","l","0","0","0","73","0","0","73","73","0","0","0","73","73","0","73","Thu Apr 26 09:53:39 2018","#000000","high","7","The main experiment item","yes","","experiment.osexp","/Users/tom/github/sft-fraction/procedure","no","mono","no","24","no","white","no","yes","800","legacy","73","73","0","/Users/tom/github/sft-fraction/results/data/subject-4a.csv","legacy","#000000","high","4","Jazzy James","3.1.9","0","l","NA","space","space","space","l","NA","478","NA","101826","10008","16159","478","NA","2","legacy","1024","2","48000","-16","experiment","4","even","present","129358","129358","NA","NA","1288","129342","229835","230355","1313","103156","113181","230356","230837","NA","229814","Fraction component detection task","74","56746","74","yes","1280"
"100","100","764.026666667","764.026666667","#808080","no","legacy","legacy","legacy","0","uniform","1","undefined","undefined","undefined","1","a","0","0","0","74","0","0","74","74","0","0","0","74","74","0","74","Thu Apr 26 09:53:39 2018","#000000","high","3","The main experiment item","yes","","experiment.osexp","/Users/tom/github/sft-fraction/procedure","no","mono","no","24","no","white","no","yes","800","legacy","74","74","0","/Users/tom/github/sft-fraction/results/data/subject-4a.csv","legacy","#757575","low","2","Jazzy James","3.1.9","0","a","NA","space","space","space","a","NA","556","NA","101826","10008","16159","556","NA","2","legacy","1024","2","48000","-16","experiment","4","even","absent","129358","129358","NA","NA","1288","129342","230920","231438","1313","103156","113181","231438","231997","NA","230902","Fraction component detection task","75","57302","75","yes","1280"
"100","100","760.526315789","760.526315789","#808080","no","legacy","legacy","legacy","0","uniform","1","undefined","undefined","undefined","1","a","0","0","0","75","0","0","75","75","0","0","0","75","75","0","75","Thu Apr 26 09:53:39 2018","#757575","low","2","The main experiment item","yes","","experiment.osexp","/Users/tom/github/sft-fraction/procedure","no","mono","no","24","no","white","no","yes","800","legacy","75","75","0","/Users/tom/github/sft-fraction/results/data/subject-4a.csv","legacy","#000000","high","2","Jazzy James","3.1.9","0","a","NA","space","space","space","a","NA","498","NA","101826","10008","16159","498","NA","2","legacy","1024","2","48000","-16","experiment","4","even","absent","129358","129358","NA","NA","1288","129342","232074","232592","1313","103156","113181","232592","233093","NA","232059","Fraction component detection task","76","57800","76","yes","1280"
"100","100","757.090909091","757.090909091","#808080","no","legacy","legacy","legacy","0","uniform","1","undefined","undefined","undefined","1","l","0","0","0","76","0","0","76","76","0","0","0","76","76","0","76","Thu Apr 26 09:53:39 2018","#000000","high","8","The main experiment item","yes","","experiment.osexp","/Users/tom/github/sft-fraction/procedure","no","mono","no","24","no","white","no","yes","800","legacy","76","76","0","/Users/tom/github/sft-fraction/results/data/subject-4a.csv","legacy","#000000","high","4","Jazzy James","3.1.9","0","l","NA","space","space","space","l","NA","496","NA","101826","10008","16159","496","NA","2","legacy","1024","2","48000","-16","experiment","4","even","present","129358","129358","NA","NA","1288","129342","233177","233697","1313","103156","113181","233698","234196","NA","233160","Fraction component detection task","77","58296","77","yes","1280"
"100","100","753.987179487","753.987179487","#808080","no","legacy","legacy","legacy","0","uniform","1","undefined","undefined","undefined","1","a","0","0","0","77","0","0","77","77","0","0","0","77","77","0","77","Thu Apr 26 09:53:39 2018","#757575","low","4","The main experiment item","yes","","experiment.osexp","/Users/tom/github/sft-fraction/procedure","no","mono","no","24","no","white","no","yes","800","legacy","77","77","0","/Users/tom/github/sft-fraction/results/data/subject-4a.csv","legacy","#000000","high","3","Jazzy James","3.1.9","0","a","NA","space","space","space","a","NA","515","NA","101826","10008","16159","515","NA","2","legacy","1024","2","48000","-16","experiment","4","even","absent","129358","129358","NA","NA","1288","129342","234283","234806","1313","103156","113181","234806","235324","NA","234267","Fraction component detection task","78","58811","78","yes","1280"
"100","100","750.873417722","750.873417722","#808080","no","legacy","legacy","legacy","0","uniform","1","undefined","undefined","undefined","1","l","0","0","0","78","0","0","78","78","0","0","0","78","78","0","78","Thu Apr 26 09:53:39 2018","#000000","high","6","The main experiment item","yes","","experiment.osexp","/Users/tom/github/sft-fraction/procedure","no","mono","no","24","no","white","no","yes","800","legacy","78","78","0","/Users/tom/github/sft-fraction/results/data/subject-4a.csv","legacy","#000000","high","7","Jazzy James","3.1.9","0","l","NA","space","space","space","l","NA","508","NA","101826","10008","16159","508","NA","2","legacy","1024","2","48000","-16","experiment","4","even","present","129358","129358","NA","NA","1288","129342","235409","235926","1313","103156","113181","235926","236437","NA","235394","Fraction component detection task","79","59319","79","yes","1280"
"100","100","751.625","751.625","#808080","no","legacy","legacy","legacy","0","uniform","1","undefined","undefined","undefined","1","a","0","0","0","79","0","0","79","79","0","0","0","79","79","0","79","Thu Apr 26 09:53:39 2018","#000000","high","4","The main experiment item","yes","","experiment.osexp","/Users/tom/github/sft-fraction/procedure","no","mono","no","24","no","white","no","yes","800","legacy","79","79","0","/Users/tom/github/sft-fraction/results/data/subject-4a.csv","legacy","#757575","low","3","Jazzy James","3.1.9","0","a","NA","space","space","space","a","NA","811","NA","101826","10008","16159","811","NA","2","legacy","1024","2","48000","-16","experiment","4","even","absent","129358","129358","NA","NA","1288","129342","236522","237039","1313","103156","113181","237039","237853","NA","236501","Fraction component detection task","80","60130","80","yes","1280"
"100","100","749.061728395","749.061728395","#808080","no","legacy","legacy","legacy","0","uniform","1","undefined","undefined","undefined","1","a","0","0","0","80","0","0","80","80","0","0","0","80","80","0","80","Thu Apr 26 09:53:39 2018","#757575","low","4","The main experiment item","yes","","experiment.osexp","/Users/tom/github/sft-fraction/procedure","no","mono","no","24","no","white","no","yes","800","legacy","80","80","0","/Users/tom/github/sft-fraction/results/data/subject-4a.csv","legacy","#757575","low","4","Jazzy James","3.1.9","0","a","NA","space","space","space","a","NA","544","NA","101826","10008","16159","544","NA","2","legacy","1024","2","48000","-16","experiment","4","even","absent","129358","129358","NA","NA","1288","129342","237940","238457","1313","103156","113181","238457","239004","NA","237922","Fraction component detection task","81","60674","81","yes","1280"
"100","100","745.902439024","745.902439024","#808080","no","legacy","legacy","legacy","0","uniform","1","undefined","undefined","undefined","1","l","0","0","0","81","0","0","81","81","0","0","0","81","81","0","81","Thu Apr 26 09:53:39 2018","#000000","high","6","The main experiment item","yes","","experiment.osexp","/Users/tom/github/sft-fraction/procedure","no","mono","no","24","no","white","no","yes","800","legacy","81","81","0","/Users/tom/github/sft-fraction/results/data/subject-4a.csv","legacy","#757575","low","7","Jazzy James","3.1.9","0","l","NA","space","space","space","l","NA","490","NA","101826","10008","16159","490","NA","2","legacy","1024","2","48000","-16","experiment","4","even","present","129358","129358","NA","NA","1288","129342","239093","239615","1313","103156","113181","239615","240108","NA","239074","Fraction component detection task","82","61164","82","yes","1280"
"100","100","743.289156627","743.289156627","#808080","no","legacy","legacy","legacy","0","uniform","1","undefined","undefined","undefined","1","l","0","0","0","82","0","0","82","82","0","0","0","82","82","0","82","Thu Apr 26 09:53:39 2018","#000000","high","6","The main experiment item","yes","","experiment.osexp","/Users/tom/github/sft-fraction/procedure","no","mono","no","24","no","white","no","yes","800","legacy","82","82","0","/Users/tom/github/sft-fraction/results/data/subject-4a.csv","legacy","#000000","high","3","Jazzy James","3.1.9","0","l","NA","space","space","space","l","NA","529","NA","101826","10008","16159","529","NA","2","legacy","1024","2","48000","-16","experiment","4","even","present","129358","129358","NA","NA","1288","129342","240196","240713","1313","103156","113181","240713","241244","NA","240179","Fraction component detection task","83","61693","83","yes","1280"
"100","100","743.869047619","743.869047619","#808080","no","legacy","legacy","legacy","0","uniform","1","undefined","undefined","undefined","1","l","0","0","0","83","0","0","83","83","0","0","0","83","83","0","83","Thu Apr 26 09:53:39 2018","#757575","low","8","The main experiment item","yes","","experiment.osexp","/Users/tom/github/sft-fraction/procedure","no","mono","no","24","no","white","no","yes","800","legacy","83","83","0","/Users/tom/github/sft-fraction/results/data/subject-4a.csv","legacy","#000000","high","7","Jazzy James","3.1.9","0","l","NA","space","space","space","l","NA","792","NA","101826","10008","16159","792","NA","2","legacy","1024","2","48000","-16","experiment","4","even","present","129358","129358","NA","NA","1288","129342","241334","241851","1313","103156","113181","241851","242645","NA","241311","Fraction component detection task","84","62485","84","yes","1280"
"100","100","742.529411765","742.529411765","#808080","no","legacy","legacy","legacy","0","uniform","1","undefined","undefined","undefined","1","a","0","0","0","84","0","0","84","84","0","0","0","84","84","0","84","Thu Apr 26 09:53:39 2018","#757575","low","3","The main experiment item","yes","","experiment.osexp","/Users/tom/github/sft-fraction/procedure","no","mono","no","24","no","white","no","yes","800","legacy","84","84","0","/Users/tom/github/sft-fraction/results/data/subject-4a.csv","legacy","#000000","high","4","Jazzy James","3.1.9","0","a","NA","space","space","space","a","NA","630","NA","101826","10008","16159","630","NA","2","legacy","1024","2","48000","-16","experiment","4","even","absent","129358","129358","NA","NA","1288","129342","242729","243245","1313","103156","113181","243245","243877","NA","242709","Fraction component detection task","85","63115","85","yes","1280"
"100","100","740.779069767","740.779069767","#808080","no","legacy","legacy","legacy","0","uniform","1","undefined","undefined","undefined","1","l","0","0","0","85","0","0","85","85","0","0","0","85","85","0","85","Thu Apr 26 09:53:39 2018","#757575","low","3","The main experiment item","yes","","experiment.osexp","/Users/tom/github/sft-fraction/procedure","no","mono","no","24","no","white","no","yes","800","legacy","85","85","0","/Users/tom/github/sft-fraction/results/data/subject-4a.csv","legacy","#000000","high","6","Jazzy James","3.1.9","0","l","NA","space","space","space","l","NA","592","NA","101826","10008","16159","592","NA","2","legacy","1024","2","48000","-16","experiment","4","even","present","129358","129358","NA","NA","1288","129342","243961","244482","1313","103156","113181","244482","245076","NA","243941","Fraction component detection task","86","63707","86","yes","1280"
"100","100","745.172413793","745.172413793","#808080","no","legacy","legacy","legacy","0","uniform","1","undefined","undefined","undefined","1","l","0","0","0","86","0","0","86","86","0","0","0","86","86","0","86","Thu Apr 26 09:53:39 2018","#757575","low","3","The main experiment item","yes","","experiment.osexp","/Users/tom/github/sft-fraction/procedure","no","mono","no","24","no","white","no","yes","800","legacy","86","86","0","/Users/tom/github/sft-fraction/results/data/subject-4a.csv","legacy","#757575","low","7","Jazzy James","3.1.9","0","l","NA","space","space","space","l","NA","1123","NA","101826","10008","16159","1123","NA","2","legacy","1024","2","48000","-16","experiment","4","even","present","129358","129358","NA","NA","1288","129342","245162","245680","1313","103156","113181","245680","246805","NA","245141","Fraction component detection task","87","64830","87","yes","1280"
"100","100","743.761363636","743.761363636","#808080","no","legacy","legacy","legacy","0","uniform","1","undefined","undefined","undefined","1","a","0","0","0","87","0","0","87","87","0","0","0","87","87","0","87","Thu Apr 26 09:53:39 2018","#757575","low","4","The main experiment item","yes","","experiment.osexp","/Users/tom/github/sft-fraction/procedure","no","mono","no","24","no","white","no","yes","800","legacy","87","87","0","/Users/tom/github/sft-fraction/results/data/subject-4a.csv","legacy","#757575","low","3","Jazzy James","3.1.9","0","a","NA","space","space","space","a","NA","621","NA","101826","10008","16159","621","NA","2","legacy","1024","2","48000","-16","experiment","4","even","absent","129358","129358","NA","NA","1288","129342","246888","247404","1313","103156","113181","247405","248029","NA","246872","Fraction component detection task","88","65451","88","yes","1280"
"100","100","742.123595506","742.123595506","#808080","no","legacy","legacy","legacy","0","uniform","1","undefined","undefined","undefined","1","l","0","0","0","88","0","0","88","88","0","0","0","88","88","0","88","Thu Apr 26 09:53:39 2018","#000000","high","2","The main experiment item","yes","","experiment.osexp","/Users/tom/github/sft-fraction/procedure","no","mono","no","24","no","white","no","yes","800","legacy","88","88","0","/Users/tom/github/sft-fraction/results/data/subject-4a.csv","legacy","#757575","low","8","Jazzy James","3.1.9","0","l","NA","space","space","space","l","NA","598","NA","101826","10008","16159","598","NA","2","legacy","1024","2","48000","-16","experiment","4","even","present","129358","129358","NA","NA","1288","129342","248111","248628","1313","103156","113181","248628","249229","NA","248094","Fraction component detection task","89","66049","89","yes","1280"
"100","100","740.022222222","740.022222222","#808080","no","legacy","legacy","legacy","0","uniform","1","undefined","undefined","undefined","1","a","0","0","0","89","0","0","89","89","0","0","0","89","89","0","89","Thu Apr 26 09:53:39 2018","#000000","high","2","The main experiment item","yes","","experiment.osexp","/Users/tom/github/sft-fraction/procedure","no","mono","no","24","no","white","no","yes","800","legacy","89","89","0","/Users/tom/github/sft-fraction/results/data/subject-4a.csv","legacy","#757575","low","2","Jazzy James","3.1.9","0","a","NA","space","space","space","a","NA","553","NA","101826","10008","16159","553","NA","2","legacy","1024","2","48000","-16","experiment","4","even","absent","129358","129358","NA","NA","1288","129342","249310","249825","1313","103156","113181","249826","250382","NA","249294","Fraction component detection task","90","66602","90","yes","1280"
"100","100","739.736263736","739.736263736","#808080","no","legacy","legacy","legacy","0","uniform","1","undefined","undefined","undefined","1","a","0","0","0","90","0","0","90","90","0","0","0","90","90","0","90","Thu Apr 26 09:53:39 2018","#000000","high","2","The main experiment item","yes","","experiment.osexp","/Users/tom/github/sft-fraction/procedure","no","mono","no","24","no","white","no","yes","800","legacy","90","90","0","/Users/tom/github/sft-fraction/results/data/subject-4a.csv","legacy","#757575","low","4","Jazzy James","3.1.9","0","a","NA","space","space","space","a","NA","714","NA","101826","10008","16159","714","NA","2","legacy","1024","2","48000","-16","experiment","4","even","absent","129358","129358","NA","NA","1288","129342","250469","250985","1313","103156","113181","250985","251702","NA","250449","Fraction component detection task","91","67316","91","yes","1280"
"98.9130434783","98.9130434783","738.27173913","738.27173913","#808080","no","legacy","legacy","legacy","0","uniform","0","undefined","undefined","undefined","0","l","0","0","0","91","0","0","91","91","0","0","0","91","91","0","91","Thu Apr 26 09:53:39 2018","#000000","high","8","The main experiment item","yes","","experiment.osexp","/Users/tom/github/sft-fraction/procedure","no","mono","no","24","no","white","no","yes","800","legacy","91","91","0","/Users/tom/github/sft-fraction/results/data/subject-4a.csv","legacy","#000000","high","3","Jazzy James","3.1.9","0","a","NA","space","space","space","a","NA","605","NA","101826","10008","16159","605","NA","2","legacy","1024","2","48000","-16","experiment","4","even","present","129358","129358","NA","NA","1288","129342","251794","252310","1313","103156","113181","252310","252918","NA","251773","Fraction component detection task","91","67921","92","yes","1280"
"98.9247311828","98.9247311828","738.322580645","738.322580645","#808080","no","legacy","legacy","legacy","0","uniform","1","undefined","undefined","undefined","1","l","0","0","0","92","0","0","92","92","0","0","0","92","92","0","92","Thu Apr 26 09:53:39 2018","#757575","low","6","The main experiment item","yes","","experiment.osexp","/Users/tom/github/sft-fraction/procedure","no","mono","no","24","no","white","no","yes","800","legacy","92","92","0","/Users/tom/github/sft-fraction/results/data/subject-4a.csv","legacy","#000000","high","2","Jazzy James","3.1.9","0","l","NA","space","space","space","l","NA","743","NA","101826","10008","16159","743","NA","2","legacy","1024","2","48000","-16","experiment","4","even","present","129358","129358","NA","252939","1288","129342","254014","254531","1313","103156","113181","254531","255277","NA","253999","Fraction component detection task","92","68664","93","yes","1280"
"98.9361702128","98.9361702128","740.5","740.5","#808080","no","legacy","legacy","legacy","0","uniform","1","undefined","undefined","undefined","1","a","0","0","0","93","0","0","93","93","0","0","0","93","93","0","93","Thu Apr 26 09:53:39 2018","#757575","low","2","The main experiment item","yes","","experiment.osexp","/Users/tom/github/sft-fraction/procedure","no","mono","no","24","no","white","no","yes","800","legacy","93","93","0","/Users/tom/github/sft-fraction/results/data/subject-4a.csv","legacy","#000000","high","3","Jazzy James","3.1.9","0","a","NA","space","space","space","a","NA","943","NA","101826","10008","16159","943","NA","2","legacy","1024","2","48000","-16","experiment","4","even","absent","129358","129358","NA","252939","1288","129342","255368","255885","1313","103156","113181","255885","256832","NA","255352","Fraction component detection task","93","69607","94","yes","1280"
"98.9473684211","98.9473684211","739.673684211","739.673684211","#808080","no","legacy","legacy","legacy","0","uniform","1","undefined","undefined","undefined","1","a","0","0","0","94","0","0","94","94","0","0","0","94","94","0","94","Thu Apr 26 09:53:39 2018","#000000","high","3","The main experiment item","yes","","experiment.osexp","/Users/tom/github/sft-fraction/procedure","no","mono","no","24","no","white","no","yes","800","legacy","94","94","0","/Users/tom/github/sft-fraction/results/data/subject-4a.csv","legacy","#000000","high","4","Jazzy James","3.1.9","0","a","NA","space","space","space","a","NA","662","NA","101826","10008","16159","662","NA","2","legacy","1024","2","48000","-16","experiment","4","even","absent","129358","129358","NA","252939","1288","129342","256916","257436","1313","103156","113181","257436","258101","NA","256900","Fraction component detection task","94","70269","95","yes","1280"
"98.9583333333","98.9583333333","739.5625","739.5625","#808080","no","legacy","legacy","legacy","0","uniform","1","undefined","undefined","undefined","1","a","0","0","0","95","0","0","95","95","0","0","0","95","95","0","95","Thu Apr 26 09:53:39 2018","#757575","low","2","The main experiment item","yes","","experiment.osexp","/Users/tom/github/sft-fraction/procedure","no","mono","no","24","no","white","no","yes","800","legacy","95","95","0","/Users/tom/github/sft-fraction/results/data/subject-4a.csv","legacy","#757575","low","4","Jazzy James","3.1.9","0","a","NA","space","space","space","a","NA","729","NA","101826","10008","16159","729","NA","2","legacy","1024","2","48000","-16","experiment","4","even","absent","129358","129358","NA","252939","1288","129342","258186","258706","1313","103156","113181","258706","259438","NA","258166","Fraction component detection task","95","70998","96","yes","1280"
"98.9690721649","98.9690721649","740.340206186","740.340206186","#808080","no","legacy","legacy","legacy","0","uniform","1","undefined","undefined","undefined","1","a","0","0","0","96","0","0","96","96","0","0","0","96","96","0","96","Thu Apr 26 09:53:39 2018","#000000","high","3","The main experiment item","yes","","experiment.osexp","/Users/tom/github/sft-fraction/procedure","no","mono","no","24","no","white","no","yes","800","legacy","96","96","0","/Users/tom/github/sft-fraction/results/data/subject-4a.csv","legacy","#757575","low","4","Jazzy James","3.1.9","0","a","NA","space","space","space","a","NA","815","NA","101826","10008","16159","815","NA","2","legacy","1024","2","48000","-16","experiment","4","even","absent","129358","129358","NA","252939","1288","129342","259520","260036","1313","103156","113181","260036","260854","NA","259502","Fraction component detection task","96","71813","97","yes","1280"
"98.9795918367","98.9795918367","738.591836735","738.591836735","#808080","no","legacy","legacy","legacy","0","uniform","1","undefined","undefined","undefined","1","a","0","0","0","97","0","0","97","97","0","0","0","97","97","0","97","Thu Apr 26 09:53:39 2018","#000000","high","2","The main experiment item","yes","","experiment.osexp","/Users/tom/github/sft-fraction/procedure","no","mono","no","24","no","white","no","yes","800","legacy","97","97","0","/Users/tom/github/sft-fraction/results/data/subject-4a.csv","legacy","#757575","low","3","Jazzy James","3.1.9","0","a","NA","space","space","space","a","NA","569","NA","101826","10008","16159","569","NA","2","legacy","1024","2","48000","-16","experiment","4","even","absent","129358","129358","NA","252939","1288","129342","260940","261458","1313","103156","113181","261458","262029","NA","260921","Fraction component detection task","97","72382","98","yes","1280"
"98.9898989899","98.9898989899","738.121212121","738.121212121","#808080","no","legacy","legacy","legacy","0","uniform","1","undefined","undefined","undefined","1","l","0","0","0","98","0","0","98","98","0","0","0","98","98","0","98","Thu Apr 26 09:53:39 2018","#000000","high","6","The main experiment item","yes","","experiment.osexp","/Users/tom/github/sft-fraction/procedure","no","mono","no","24","no","white","no","yes","800","legacy","98","98","0","/Users/tom/github/sft-fraction/results/data/subject-4a.csv","legacy","#000000","high","8","Jazzy James","3.1.9","0","l","NA","space","space","space","l","NA","692","NA","101826","10008","16159","692","NA","2","legacy","1024","2","48000","-16","experiment","4","even","present","129358","129358","NA","252939","1288","129342","262113","262631","1313","103156","113181","262631","263325","NA","262096","Fraction component detection task","98","73074","99","yes","1280"
"99","99","741.54","741.54","#808080","no","legacy","legacy","legacy","0","uniform","1","undefined","undefined","undefined","1","l","0","0","0","99","0","0","99","99","0","0","0","99","99","0","99","Thu Apr 26 09:53:39 2018","#757575","low","6","The main experiment item","yes","","experiment.osexp","/Users/tom/github/sft-fraction/procedure","no","mono","no","24","no","white","no","yes","800","legacy","99","99","0","/Users/tom/github/sft-fraction/results/data/subject-4a.csv","legacy","#757575","low","2","Jazzy James","3.1.9","0","l","NA","space","space","space","l","NA","1080","NA","101826","10008","16159","1080","NA","2","legacy","1024","2","48000","-16","experiment","4","even","present","129358","129358","NA","252939","1288","129342","263414","263930","1313","103156","113181","263931","265013","NA","263394","Fraction component detection task","99","74154","100","yes","1280"
"99.0099009901","99.0099009901","739.534653465","739.534653465","#808080","no","legacy","legacy","legacy","0","uniform","1","undefined","undefined","undefined","1","a","0","0","0","100","0","0","100","100","0","0","0","100","100","0","100","Thu Apr 26 09:53:39 2018","#000000","high","2","The main experiment item","yes","","experiment.osexp","/Users/tom/github/sft-fraction/procedure","no","mono","no","24","no","white","no","yes","800","legacy","100","100","0","/Users/tom/github/sft-fraction/results/data/subject-4a.csv","legacy","#000000","high","3","Jazzy James","3.1.9","0","a","NA","space","space","space","a","NA","539","NA","101826","10008","16159","539","NA","2","legacy","1024","2","48000","-16","experiment","4","even","absent","129358","129358","NA","252939","1288","129342","265099","265616","1313","103156","113181","265616","266158","NA","265083","Fraction component detection task","100","74693","101","yes","1280"
"99.0196078431","99.0196078431","738.078431373","738.078431373","#808080","no","legacy","legacy","legacy","0","uniform","1","undefined","undefined","undefined","1","l","0","0","0","101","0","0","101","101","0","0","0","101","101","0","101","Thu Apr 26 09:53:39 2018","#000000","high","7","The main experiment item","yes","","experiment.osexp","/Users/tom/github/sft-fraction/procedure","no","mono","no","24","no","white","no","yes","800","legacy","101","101","0","/Users/tom/github/sft-fraction/results/data/subject-4a.csv","legacy","#000000","high","6","Jazzy James","3.1.9","0","l","NA","space","space","space","l","NA","591","NA","101826","10008","16159","591","NA","2","legacy","1024","2","48000","-16","experiment","4","even","present","129358","129358","NA","252939","1288","129342","266244","266764","1313","103156","113181","266764","267360","NA","266225","Fraction component detection task","101","75284","102","yes","1280"
"99.0291262136","99.0291262136","736.86407767","736.86407767","#808080","no","legacy","legacy","legacy","0","uniform","1","undefined","undefined","undefined","1","l","0","0","0","102","0","0","102","102","0","0","0","102","102","0","102","Thu Apr 26 09:53:39 2018","#757575","low","4","The main experiment item","yes","","experiment.osexp","/Users/tom/github/sft-fraction/procedure","no","mono","no","24","no","white","no","yes","800","legacy","102","102","0","/Users/tom/github/sft-fraction/results/data/subject-4a.csv","legacy","#757575","low","8","Jazzy James","3.1.9","0","l","NA","space","space","space","l","NA","613","NA","101826","10008","16159","613","NA","2","legacy","1024","2","48000","-16","experiment","4","even","present","129358","129358","NA","252939","1288","129342","267446","267967","1313","103156","113181","267967","268584","NA","267430","Fraction component detection task","102","75897","103","yes","1280"
"99.0384615385","99.0384615385","735.480769231","735.480769231","#808080","no","legacy","legacy","legacy","0","uniform","1","undefined","undefined","undefined","1","a","0","0","0","103","0","0","103","103","0","0","0","103","103","0","103","Thu Apr 26 09:53:39 2018","#757575","low","2","The main experiment item","yes","","experiment.osexp","/Users/tom/github/sft-fraction/procedure","no","mono","no","24","no","white","no","yes","800","legacy","103","103","0","/Users/tom/github/sft-fraction/results/data/subject-4a.csv","legacy","#757575","low","2","Jazzy James","3.1.9","0","a","NA","space","space","space","a","NA","593","NA","101826","10008","16159","593","NA","2","legacy","1024","2","48000","-16","experiment","4","even","absent","129358","129358","NA","252939","1288","129342","268670","269187","1313","103156","113181","269187","269783","NA","268650","Fraction component detection task","103","76490","104","yes","1280"
"99.0476190476","99.0476190476","736.352380952","736.352380952","#808080","no","legacy","legacy","legacy","0","uniform","1","undefined","undefined","undefined","1","l","0","0","0","104","0","0","104","104","0","0","0","104","104","0","104","Thu Apr 26 09:53:39 2018","#000000","high","8","The main experiment item","yes","","experiment.osexp","/Users/tom/github/sft-fraction/procedure","no","mono","no","24","no","white","no","yes","800","legacy","104","104","0","/Users/tom/github/sft-fraction/results/data/subject-4a.csv","legacy","#000000","high","2","Jazzy James","3.1.9","0","l","NA","space","space","space","l","NA","827","NA","101826","10008","16159","827","NA","2","legacy","1024","2","48000","-16","experiment","4","even","present","129358","129358","NA","252939","1288","129342","269868","270384","1313","103156","113181","270384","271214","NA","269852","Fraction component detection task","104","77317","105","yes","1280"
"99.0566037736","99.0566037736","735.009433962","735.009433962","#808080","no","legacy","legacy","legacy","0","uniform","1","undefined","undefined","undefined","1","l","0","0","0","105","0","0","105","105","0","0","0","105","105","0","105","Thu Apr 26 09:53:39 2018","#000000","high","7","The main experiment item","yes","","experiment.osexp","/Users/tom/github/sft-fraction/procedure","no","mono","no","24","no","white","no","yes","800","legacy","105","105","0","/Users/tom/github/sft-fraction/results/data/subject-4a.csv","legacy","#000000","high","3","Jazzy James","3.1.9","0","l","NA","space","space","space","l","NA","594","NA","101826","10008","16159","594","NA","2","legacy","1024","2","48000","-16","experiment","4","even","present","129358","129358","NA","252939","1288","129342","271300","271818","1313","103156","113181","271818","272416","NA","271279","Fraction component detection task","105","77911","106","yes","1280"
"99.0654205607","99.0654205607","733.644859813","733.644859813","#808080","no","legacy","legacy","legacy","0","uniform","1","undefined","undefined","undefined","1","l","0","0","0","106","0","0","106","106","0","0","0","106","106","0","106","Thu Apr 26 09:53:39 2018","#757575","low","8","The main experiment item","yes","","experiment.osexp","/Users/tom/github/sft-fraction/procedure","no","mono","no","24","no","white","no","yes","800","legacy","106","106","0","/Users/tom/github/sft-fraction/results/data/subject-4a.csv","legacy","#757575","low","2","Jazzy James","3.1.9","0","l","NA","space","space","space","l","NA","589","NA","101826","10008","16159","589","NA","2","legacy","1024","2","48000","-16","experiment","4","even","present","129358","129358","NA","252939","1288","129342","272500","273015","1313","103156","113181","273015","273607","NA","272479","Fraction component detection task","106","78500","107","yes","1280"
"98.1481481481","98.1481481481","732.074074074","732.074074074","#808080","no","legacy","legacy","legacy","0","uniform","0","undefined","undefined","undefined","0","l","0","0","0","107","0","0","107","107","0","0","0","107","107","0","107","Thu Apr 26 09:53:39 2018","#000000","high","2","The main experiment item","yes","","experiment.osexp","/Users/tom/github/sft-fraction/procedure","no","mono","no","24","no","white","no","yes","800","legacy","107","107","0","/Users/tom/github/sft-fraction/results/data/subject-4a.csv","legacy","#000000","high","7","Jazzy James","3.1.9","0","a","NA","space","space","space","a","NA","564","NA","101826","10008","16159","564","NA","2","legacy","1024","2","48000","-16","experiment","4","even","present","129358","129358","NA","252939","1288","129342","273691","274208","1313","103156","113181","274208","274776","NA","273671","Fraction component detection task","106","79064","108","yes","1280"
"98.1651376147","98.1651376147","731.009174312","731.009174312","#808080","no","legacy","legacy","legacy","0","uniform","1","undefined","undefined","undefined","1","l","0","0","0","108","0","0","108","108","0","0","0","108","108","0","108","Thu Apr 26 09:53:39 2018","#757575","low","4","The main experiment item","yes","","experiment.osexp","/Users/tom/github/sft-fraction/procedure","no","mono","no","24","no","white","no","yes","800","legacy","108","108","0","/Users/tom/github/sft-fraction/results/data/subject-4a.csv","legacy","#757575","low","6","Jazzy James","3.1.9","0","l","NA","space","space","space","l","NA","616","NA","101826","10008","16159","616","NA","2","legacy","1024","2","48000","-16","experiment","4","even","present","129358","129358","NA","274796","1288","129342","275884","276402","1313","103156","113181","276403","277022","NA","275864","Fraction component detection task","107","79680","109","yes","1280"
